index,n,initialh,no_boot,starttransmission,isdescent,time,speed,latitude,longitude,altitude,satellites,voltage,eulerX,eulerY,eulerZ,accelX,accelY,accelZ,gyroX,gyroY,gyroZ,temperature,magX,magY,magZ,linearAccelX,linearAccelY,linearAccelZ,gravityX,gravityY,gravityZ,altitude_difference,bmp_temperature,bmp_pressure
37500,2893,70.42,26,1,0,1245000,0.05,23.1142464,72.4985733,59.06,10010,6.53,79.88,-2.31,2.19,79.88,-2.31,2.19,-5.56,-7.12,2.81,36.0,-36.75,-2.69,-26.56,0.16,0.42,-1.95,-0.39,-0.38,9.79,-1.17,38.5,1004.96
37501,2893,70.42,26,1,0,1245000,0.05,23.1142464,72.4985733,59.06,10010,6.53,79.88,-2.12,2.19,79.88,-2.12,2.19,1.12,-3.75,0.94,36.0,-36.75,-4.19,-26.56,-0.51,-0.02,0.01,-0.36,-0.38,9.79,-1.28,38.5,1004.97
37502,2893,70.42,26,1,0,1245000,0.05,23.1142464,72.4985733,59.06,10010,6.53,79.88,-2.31,2.12,79.88,-2.31,2.12,2.94,7.25,-2.69,36.0,-36.75,-4.19,-26.56,1.19,0.49,1.87,-0.39,-0.37,9.79,-1.24,38.51,1004.97
37503,2893,70.42,26,1,0,1245000,0.05,23.1142464,72.4985733,59.06,10010,6.53,79.88,-2.12,2.19,79.88,-2.12,2.19,0.0,-5.44,-3.38,36.0,-36.75,-3.75,-26.19,-0.41,-0.38,0.47,-0.37,-0.38,9.79,-1.18,38.51,1004.96
37504,2893,70.42,26,1,0,1245000,0.05,23.1142464,72.4985733,59.06,10010,6.59,79.81,-2.19,2.19,79.81,-2.19,2.19,2.25,6.81,2.38,36.0,-36.38,-4.19,-27.06,-0.12,-0.15,-2.21,-0.37,-0.38,9.79,-1.24,38.51,1004.97
37505,2894,70.42,26,1,0,1245100,0.04,23.1142464,72.4985733,59.05,10010,6.57,79.88,-2.19,2.19,79.88,-2.19,2.19,-1.69,-4.19,1.31,36.0,-36.38,-3.75,-26.19,-0.76,0.61,-0.77,-0.37,-0.38,9.79,-1.18,38.49,1004.96
37506,2894,70.42,26,1,0,1245100,0.04,23.1142464,72.4985733,59.05,10010,6.55,79.81,-2.19,2.25,79.81,-2.19,2.25,4.38,7.25,-7.06,36.0,-36.75,-5.0,-26.56,0.18,-1.09,1.28,-0.39,-0.37,9.79,-1.23,38.48,1004.97
37507,2894,70.42,26,1,0,1245100,0.04,23.1142464,72.4985733,59.05,10010,6.55,79.81,-2.25,2.19,79.81,-2.25,2.19,-2.06,-2.69,-2.69,36.0,-36.0,-3.75,-26.19,0.42,-0.22,0.32,-0.38,-0.37,9.79,-1.26,38.48,1004.97
37508,2894,70.42,26,1,0,1245100,0.04,23.1142464,72.4985733,59.05,10010,6.55,79.81,-2.12,2.19,79.81,-2.12,2.19,1.81,-3.88,2.19,36.0,-36.0,-3.75,-26.19,-0.88,0.49,-0.94,-0.36,-0.38,9.79,-1.2,38.48,1004.96
37509,2894,70.42,26,1,0,1245100,0.04,23.1142464,72.4985733,59.05,10010,6.55,79.81,-2.25,2.19,79.81,-2.25,2.19,-0.94,5.12,-1.31,36.0,-35.69,-2.69,-26.19,0.23,0.02,-0.64,-0.38,-0.38,9.79,-1.17,38.48,1004.96
37510,2894,70.42,26,1,0,1245100,0.04,23.1142464,72.4985733,59.05,10010,6.57,79.88,-2.25,2.25,79.88,-2.25,2.25,0.62,-2.31,-1.94,36.0,-36.0,-4.19,-27.88,0.23,-0.96,-0.95,-0.39,-0.38,9.79,-1.08,38.49,1004.95
37511,2894,70.42,26,1,0,1245100,0.04,23.1142464,72.4985733,59.05,10010,6.55,79.81,-2.12,2.12,79.81,-2.12,2.12,1.75,-2.0,1.75,36.0,-35.88,-3.5,-26.19,-0.5,0.06,1.32,-0.36,-0.36,9.79,-1.14,38.49,1004.96
37512,2894,70.42,26,1,0,1245100,0.04,23.1142464,72.4985733,59.05,10010,6.55,79.81,-2.19,2.25,79.81,-2.19,2.25,-6.38,2.56,0.62,36.0,-36.25,-4.56,-25.75,0.27,0.01,1.35,-0.38,-0.38,9.79,-1.08,38.5,1004.95
37513,2894,70.42,26,1,0,1245100,0.04,23.1142464,72.4985733,59.05,10010,6.55,79.81,-2.25,2.25,79.81,-2.25,2.25,-2.31,-0.75,2.56,36.0,-36.25,-4.56,-25.75,0.62,0.05,-0.42,-0.38,-0.39,9.79,-1.01,38.5,1004.94
37514,2894,70.42,26,1,0,1245100,0.04,23.1142464,72.4985733,59.05,10010,6.55,79.81,-2.19,2.12,79.81,-2.19,2.12,0.69,-1.0,4.62,36.0,-36.56,-3.75,-27.0,0.46,0.53,-0.21,-0.38,-0.37,9.79,-1.02,38.51,1004.94
37515,2894,70.42,26,1,0,1245100,0.04,23.1142464,72.4985733,59.05,10010,6.57,79.81,-2.12,2.19,79.81,-2.12,2.19,-2.94,-1.62,-1.06,36.0,-36.25,-4.19,-27.0,-0.74,-0.09,0.51,-0.36,-0.38,9.79,-1.05,38.51,1004.94
37516,2894,70.42,26,1,0,1245100,0.04,23.1142464,72.4985733,59.05,10010,6.57,79.81,-2.19,2.31,79.81,-2.19,2.31,-1.56,3.56,0.12,36.0,-36.69,-3.06,-26.19,-0.3,-0.27,-0.9,-0.38,-0.39,9.79,-1.09,38.52,1004.95
37517,2894,70.42,26,1,0,1245100,0.04,23.1142464,72.4985733,59.05,10010,6.55,79.81,-2.31,2.19,79.81,-2.31,2.19,2.0,0.12,1.94,36.0,-36.69,-3.06,-26.19,1.3,0.12,0.08,-0.39,-0.37,9.79,-1.01,38.51,1004.94
37518,2895,70.42,26,1,0,1245200,0.03,23.1142464,72.4985733,59.03,10010,6.55,79.81,-2.12,2.31,79.81,-2.12,2.31,-1.25,-1.44,-1.0,36.0,-37.06,-4.56,-27.06,-0.42,0.03,-0.78,-0.37,-0.4,9.79,-0.88,38.48,1004.92
37519,2895,70.42,26,1,0,1245200,0.03,23.1142464,72.4985733,59.03,10010,6.57,79.81,-2.19,2.19,79.81,-2.19,2.19,4.62,2.06,0.06,36.0,-36.38,-4.56,-25.88,-0.03,-0.24,-0.2,-0.38,-0.38,9.79,-0.89,38.47,1004.93
37520,2895,70.42,26,1,0,1245200,0.03,23.1142464,72.4985733,59.03,10010,6.57,79.81,-2.19,2.12,79.81,-2.19,2.12,0.69,-1.62,0.88,36.0,-37.06,-3.75,-27.5,0.48,-0.08,0.07,-0.38,-0.36,9.79,-0.88,38.47,1004.93
37521,2895,70.42,26,1,0,1245200,0.03,23.1142464,72.4985733,59.03,10010,6.57,79.81,-2.12,2.19,79.81,-2.12,2.19,-3.81,-1.31,0.25,36.0,-37.06,-4.19,-27.06,-0.56,0.36,-0.1,-0.36,-0.39,9.79,-0.85,38.47,1004.92
37522,2895,70.42,26,1,0,1245200,0.03,23.1142464,72.4985733,59.03,10010,6.55,79.81,-2.19,2.31,79.81,-2.19,2.31,-0.88,3.12,-0.31,36.0,-36.0,-3.5,-25.5,0.1,0.14,-0.74,-0.38,-0.39,9.79,-0.79,38.47,1004.91
37523,2895,70.42,26,1,0,1245200,0.03,23.1142464,72.4985733,59.03,10010,6.55,79.81,-2.25,2.25,79.81,-2.25,2.25,3.31,-1.25,-0.75,36.0,-36.0,-3.5,-25.5,0.58,-0.11,-0.67,-0.38,-0.38,9.79,-0.78,38.48,1004.91
37524,2895,70.42,26,1,0,1245200,0.03,23.1142464,72.4985733,59.03,10010,6.5,79.81,-2.12,2.12,79.81,-2.12,2.12,0.81,-3.25,0.25,36.0,-36.38,-5.0,-27.06,-0.19,-0.19,0.12,-0.36,-0.37,9.79,-0.7,38.48,1004.9
37525,2895,70.42,26,1,0,1245200,0.03,23.1142464,72.4985733,59.03,10010,6.57,79.81,-2.12,2.12,79.81,-2.12,2.12,-1.56,2.5,0.56,36.0,-36.38,-5.0,-25.88,-0.67,-0.1,0.12,-0.36,-0.37,9.79,-0.66,38.48,1004.9
37526,2895,70.42,26,1,0,1245200,0.03,23.1142464,72.4985733,59.03,10010,6.57,79.75,-2.25,2.19,79.75,-2.25,2.19,-2.5,1.94,0.0,36.0,-36.0,-4.56,-28.0,0.52,0.05,-0.78,-0.38,-0.38,9.79,-0.62,38.49,1004.89
37527,2895,70.42,26,1,0,1245200,0.03,23.1142464,72.4985733,59.03,10010,6.55,79.75,-2.19,2.25,79.75,-2.19,2.25,-0.5,-3.31,-0.12,36.0,-36.0,-4.56,-28.0,0.07,0.31,-0.11,-0.37,-0.39,9.79,-0.65,38.5,1004.9
37528,2895,70.42,26,1,0,1245200,0.03,23.1142464,72.4985733,59.03,10010,6.55,79.75,-2.12,2.25,79.75,-2.12,2.25,2.81,2.06,-0.69,36.0,-36.69,-4.56,-26.56,-0.6,-0.09,-0.29,-0.36,-0.38,9.79,-0.6,38.5,1004.89
37529,2895,70.42,26,1,0,1245200,0.03,23.1142464,72.4985733,59.03,10010,6.57,79.81,-2.19,2.12,79.81,-2.19,2.12,0.62,1.5,-0.19,36.0,-36.69,-4.19,-29.06,0.51,-0.35,0.04,-0.38,-0.36,9.79,-0.53,38.5,1004.88
37530,2895,70.42,26,1,0,1245200,0.03,23.1142464,72.4985733,59.03,10010,6.53,79.75,-2.19,2.12,79.75,-2.19,2.12,-2.12,-1.81,0.62,36.0,-37.06,-5.25,-25.75,0.04,0.08,-0.23,-0.37,-0.37,9.79,-0.55,38.51,1004.89
37531,2896,70.42,26,1,0,1245200,0.03,23.1142464,72.4985733,59.03,10010,6.53,79.75,-2.12,2.19,79.75,-2.12,2.19,1.0,-0.56,-0.06,36.0,-36.25,-4.56,-27.38,-0.3,-0.08,-0.02,-0.37,-0.38,9.79,-0.61,38.49,1004.89
37532,2896,70.42,26,1,0,1245200,0.03,23.1142464,72.4985733,59.03,10010,6.53,79.75,-2.19,2.19,79.75,-2.19,2.19,-0.25,1.38,0.12,36.0,-36.25,-4.19,-25.75,0.19,-0.08,-0.17,-0.38,-0.38,9.79,-0.8,38.48,1004.92
37533,2896,70.42,26,1,0,1245300,0.03,23.1142464,72.4985733,59.02,10010,6.53,79.75,-2.19,2.25,79.75,-2.19,2.25,-1.25,-1.19,0.19,36.0,-36.25,-3.75,-26.56,0.12,0.07,-0.29,-0.37,-0.38,9.79,-0.83,38.48,1004.92
37534,2896,70.42,26,1,0,1245300,0.03,23.1142464,72.4985733,59.02,10010,6.53,79.75,-2.12,2.25,79.75,-2.12,2.25,0.12,-0.94,0.25,36.0,-36.25,-3.75,-26.56,-0.4,0.24,-0.2,-0.36,-0.38,9.79,-0.92,38.49,1004.93
37535,2896,70.42,26,1,0,1245300,0.03,23.1142464,72.4985733,59.02,10010,6.57,79.75,-2.12,2.25,79.75,-2.12,2.25,1.06,0.75,-0.19,36.0,-37.0,-4.56,-27.38,-0.13,0.06,-0.21,-0.37,-0.38,9.79,-0.96,38.49,1004.93
37536,2896,70.42,26,1,0,1245300,0.03,23.1142464,72.4985733,59.02,10010,6.57,79.75,-2.12,2.19,79.75,-2.12,2.19,0.69,0.5,-0.12,36.0,-36.56,-4.19,-27.0,0.03,-0.08,-0.18,-0.37,-0.37,9.79,-0.96,38.5,1004.93
37537,2896,70.42,26,1,0,1245300,0.03,23.1142464,72.4985733,59.02,10010,6.53,79.75,-2.12,2.19,79.75,-2.12,2.19,-0.62,0.38,0.0,36.0,-36.56,-4.56,-26.56,-0.02,-0.08,-0.19,-0.37,-0.38,9.79,-0.92,38.5,1004.93
37538,2896,70.42,26,1,0,1245300,0.03,23.1142464,72.4985733,59.02,10010,6.57,79.75,-2.12,2.25,79.75,-2.12,2.25,-1.12,0.56,0.0,36.0,-37.0,-4.19,-26.56,0.01,0.01,-0.23,-0.37,-0.38,9.79,-0.92,38.51,1004.93
37539,2896,70.42,26,1,0,1245300,0.03,23.1142464,72.4985733,59.02,10010,6.55,79.75,-2.12,2.25,79.75,-2.12,2.25,-0.19,0.31,0.19,36.0,-37.0,-4.19,-26.56,0.18,0.09,-0.32,-0.37,-0.39,9.79,-0.84,38.51,1004.92
37540,2896,70.42,26,1,0,1245300,0.03,23.1142464,72.4985733,59.02,10010,6.55,79.75,-2.12,2.25,79.75,-2.12,2.25,0.44,-1.19,0.25,36.0,-36.56,-4.56,-27.88,0.03,0.05,-0.17,-0.36,-0.38,9.79,-0.93,38.52,1004.93
37541,2896,70.42,26,1,0,1245300,0.03,23.1142464,72.4985733,59.02,10010,6.57,79.75,-2.06,2.25,79.75,-2.06,2.25,0.56,-0.38,0.19,36.0,-36.56,-4.56,-26.56,-0.24,0.0,-0.08,-0.36,-0.38,9.79,-0.99,38.52,1004.94
37542,2896,70.42,26,1,0,1245300,0.03,23.1142464,72.4985733,59.02,10010,6.57,79.75,-2.06,2.25,79.75,-2.06,2.25,0.06,0.0,0.31,36.0,-36.56,-5.0,-26.56,-0.11,0.01,-0.29,-0.36,-0.38,9.79,-1.06,38.53,1004.95
37543,2896,70.42,26,1,0,1245300,0.03,23.1142464,72.4985733,59.02,10010,6.55,79.75,-2.12,2.25,79.75,-2.12,2.25,-0.31,-0.19,0.19,36.0,-36.56,-5.0,-26.56,-0.15,0.05,-0.15,-0.36,-0.38,9.79,-0.99,38.53,1004.94
37544,2897,70.42,26,1,0,1245300,0.03,23.1142464,72.4985733,59.02,10010,6.55,79.75,-2.19,2.19,79.75,-2.19,2.19,-0.69,0.5,-0.19,36.0,-36.56,-4.19,-27.88,0.03,-0.01,-0.14,-0.37,-0.38,9.79,-0.96,38.51,1004.93
37545,2897,70.42,26,1,0,1245300,0.03,23.1142464,72.4985733,59.02,10010,6.55,79.75,-2.19,2.19,79.75,-2.19,2.19,-0.31,0.31,-0.31,36.0,-36.56,-4.19,-27.88,0.12,0.04,-0.35,-0.37,-0.38,9.79,-0.92,38.5,1004.93
37546,2897,70.42,26,1,0,1245300,0.03,23.1142464,72.4985733,59.02,10010,6.55,79.75,-2.19,2.19,79.75,-2.19,2.19,0.19,-0.69,-0.25,36.0,-35.56,-4.56,-27.38,0.05,0.0,-0.17,-0.37,-0.38,9.79,-0.92,38.5,1004.93
37547,2897,70.42,26,1,0,1245400,0.02,23.1142464,72.4985733,59.02,10010,6.55,79.75,-2.12,2.19,79.75,-2.12,2.19,0.38,-0.5,-0.12,36.0,-36.25,-5.0,-27.38,-0.15,0.0,-0.18,-0.37,-0.38,9.79,-0.96,38.5,1004.93
37548,2897,70.42,26,1,0,1245400,0.02,23.1142464,72.4985733,59.0,10010,6.57,79.75,-2.19,2.19,79.75,-2.19,2.19,-0.06,0.0,-0.06,36.0,-36.25,-4.19,-26.56,-0.12,-0.04,-0.18,-0.37,-0.38,9.79,-0.98,38.5,1004.94
37549,2897,70.42,26,1,0,1245400,0.02,23.1142464,72.4985733,59.0,10010,6.55,79.75,-2.19,2.19,79.75,-2.19,2.19,-0.06,0.19,0.25,36.0,-36.25,-4.19,-26.56,-0.07,0.0,-0.26,-0.37,-0.38,9.79,-1.02,38.51,1004.94
37550,2897,70.42,26,1,0,1245400,0.02,23.1142464,72.4985733,59.0,10010,6.55,79.75,-2.19,2.19,79.75,-2.19,2.19,0.19,-0.06,0.31,36.0,-36.56,-4.56,-27.0,-0.09,0.02,-0.24,-0.37,-0.38,9.79,-1.03,38.51,1004.94
37551,2897,70.42,26,1,0,1245400,0.02,23.1142464,72.4985733,59.0,10010,6.57,79.75,-2.19,2.19,79.75,-2.19,2.19,0.31,0.12,0.31,36.0,-35.88,-3.75,-25.75,-0.02,0.03,-0.22,-0.37,-0.38,9.79,-0.96,38.52,1004.93
37552,2897,70.42,26,1,0,1245400,0.02,23.1142464,72.4985733,59.0,10010,6.57,79.75,-2.19,2.19,79.75,-2.19,2.19,-0.38,0.44,0.19,36.0,-37.0,-3.75,-27.0,0.12,0.04,-0.27,-0.37,-0.38,9.79,-0.96,38.52,1004.93
37553,2897,70.42,26,1,0,1245400,0.02,23.1142464,72.4985733,59.0,10010,6.55,79.75,-2.19,2.19,79.75,-2.19,2.19,-0.19,-0.44,0.19,36.0,-37.75,-4.19,-26.19,0.09,0.09,-0.23,-0.37,-0.38,9.79,-1.0,38.53,1004.94
37554,2897,70.42,26,1,0,1245400,0.02,23.1142464,72.4985733,59.0,10010,6.55,79.75,-2.19,2.19,79.75,-2.19,2.19,0.06,-0.31,-0.12,36.0,-37.75,-4.19,-26.19,-0.02,0.07,-0.26,-0.37,-0.38,9.79,-1.01,38.53,1004.94
37555,2897,70.42,26,1,0,1245400,0.02,23.1142464,72.4985733,59.0,10010,6.57,79.75,-2.19,2.19,79.75,-2.19,2.19,0.38,0.0,-0.38,36.0,-36.56,-4.19,-27.38,-0.01,0.0,-0.15,-0.37,-0.38,9.79,-0.97,38.53,1004.94
37556,2897,70.42,26,1,0,1245400,0.02,23.1142464,72.4985733,59.0,10010,6.57,79.75,-2.19,2.19,79.75,-2.19,2.19,0.0,-0.12,-0.19,36.0,-36.25,-5.0,-26.56,-0.1,-0.05,-0.2,-0.37,-0.38,9.79,-0.88,38.54,1004.93
37557,2898,70.42,26,1,0,1245400,0.02,23.1142464,72.4985733,59.0,10010,6.5,79.75,-2.19,2.19,79.75,-2.19,2.19,0.06,0.12,-0.19,36.0,-35.88,-5.69,-27.0,0.01,-0.03,-0.24,-0.38,-0.38,9.79,-0.9,38.52,1004.93
37558,2898,70.42,26,1,0,1245400,0.02,23.1142464,72.4985733,59.0,10010,6.55,79.75,-2.19,2.19,79.75,-2.19,2.19,0.38,-0.06,0.0,36.0,-35.88,-3.75,-27.0,-0.01,-0.03,-0.2,-0.38,-0.38,9.79,-0.88,38.51,1004.93
37559,2898,70.42,26,1,0,1245400,0.02,23.1142464,72.4985733,59.0,10010,6.57,79.75,-2.19,2.19,79.75,-2.19,2.19,-0.25,0.0,0.0,36.0,-37.38,-3.75,-27.88,-0.01,0.03,-0.22,-0.38,-0.38,9.79,-0.87,38.5,1004.92
37560,2898,70.42,26,1,0,1245400,0.02,23.1142464,72.4985733,59.0,10010,6.52,79.75,-2.19,2.19,79.75,-2.19,2.19,0.12,0.12,-0.06,36.0,-36.25,-4.56,-26.19,-0.02,0.05,-0.24,-0.38,-0.38,9.79,-0.75,38.5,1004.91
37561,2898,70.42,26,1,0,1245400,0.02,23.1142464,72.4985733,59.0,10010,6.55,79.75,-2.19,2.19,79.75,-2.19,2.19,0.31,-0.12,0.12,36.0,-36.25,-4.56,-26.19,-0.02,0.04,-0.2,-0.38,-0.38,9.79,-0.81,38.51,1004.92
37562,2898,70.42,26,1,0,1245500,0.03,23.1142464,72.4985733,58.99,10010,6.53,79.75,-2.19,2.19,79.75,-2.19,2.19,0.06,0.06,0.12,36.0,-37.0,-4.19,-28.25,-0.05,0.0,-0.22,-0.38,-0.38,9.79,-0.83,38.51,1004.92
37563,2898,70.42,26,1,0,1245500,0.03,23.1142464,72.4985733,58.99,10010,6.53,79.75,-2.19,2.19,79.75,-2.19,2.19,-0.19,0.31,-0.12,36.0,-37.75,-3.5,-27.88,-0.01,0.0,-0.21,-0.38,-0.38,9.79,-0.86,38.52,1004.92
37564,2898,70.42,26,1,0,1245500,0.03,23.1142464,72.4985733,58.99,10010,6.53,79.75,-2.19,2.19,79.75,-2.19,2.19,-0.25,0.44,-0.19,36.0,-36.25,-3.75,-27.88,0.03,0.01,-0.27,-0.38,-0.38,9.79,-0.89,38.52,1004.93
37565,2898,70.42,26,1,0,1245500,0.03,23.1142464,72.4985733,58.99,10010,6.53,79.75,-2.19,2.19,79.75,-2.19,2.19,0.06,0.19,-0.19,36.0,-36.25,-3.75,-27.0,0.01,0.0,-0.2,-0.38,-0.38,9.79,-0.96,38.53,1004.94
37566,2898,70.42,26,1,0,1245500,0.03,23.1142464,72.4985733,58.99,10010,6.53,79.75,-2.19,2.19,79.75,-2.19,2.19,0.19,0.12,-0.25,36.0,-36.25,-3.75,-27.0,-0.04,-0.01,-0.22,-0.38,-0.38,9.79,-0.92,38.53,1004.93
37567,2898,70.42,26,1,0,1245500,0.03,23.1142464,72.4985733,58.99,10010,6.53,79.75,-2.19,2.19,79.75,-2.19,2.19,0.0,0.06,-0.25,36.0,-36.25,-4.19,-27.38,-0.02,-0.02,-0.14,-0.38,-0.38,9.79,-0.96,38.54,1004.93
37568,2898,70.42,26,1,0,1245500,0.03,23.1142464,72.4985733,58.99,10010,6.53,79.75,-2.19,2.19,79.75,-2.19,2.19,0.31,0.0,0.06,36.0,-36.56,-4.56,-26.56,-0.04,0.04,-0.26,-0.38,-0.38,9.79,-0.88,38.54,1004.93
37569,2898,70.42,26,1,0,1245500,0.03,23.1142464,72.4985733,58.99,10010,6.57,79.75,-2.19,2.19,79.75,-2.19,2.19,0.0,-0.12,0.19,36.0,-37.38,-3.75,-26.19,-0.02,0.01,-0.15,-0.38,-0.38,9.79,-0.91,38.54,1004.93
37570,2899,70.42,26,1,0,1245500,0.03,23.1142464,72.4985733,58.99,10010,6.57,79.75,-2.19,2.19,79.75,-2.19,2.19,-0.06,0.19,0.06,36.0,-37.0,-4.56,-27.0,0.0,0.02,-0.21,-0.38,-0.38,9.79,-0.99,38.52,1004.94
37571,2899,70.42,26,1,0,1245500,0.03,23.1142464,72.4985733,58.99,10010,6.57,79.75,-2.19,2.19,79.75,-2.19,2.19,-0.19,-0.06,0.19,36.0,-35.88,-3.75,-27.88,0.02,0.06,-0.25,-0.38,-0.38,9.79,-1.08,38.51,1004.95
37572,2899,70.42,26,1,0,1245500,0.03,23.1142464,72.4985733,58.99,10010,6.57,79.75,-2.19,2.19,79.75,-2.19,2.19,0.0,-0.12,0.0,36.0,-37.38,-3.75,-27.38,0.02,0.03,-0.22,-0.38,-0.38,9.79,-1.08,38.51,1004.95
37573,2899,70.42,26,1,0,1245500,0.03,23.1142464,72.4985733,58.99,10010,6.53,79.75,-2.19,2.19,79.75,-2.19,2.19,-0.12,-0.19,0.0,36.0,-37.38,-3.75,-27.38,-0.08,0.02,-0.21,-0.38,-0.38,9.79,-1.02,38.51,1004.94
37574,2899,70.42,26,1,0,1245500,0.03,23.1142464,72.4985733,58.99,10010,6.57,79.75,-2.19,2.19,79.75,-2.19,2.19,0.06,0.06,-0.12,36.0,-37.75,-3.06,-27.0,-0.04,0.0,-0.18,-0.38,-0.38,9.79,-1.0,38.52,1004.94
37575,2899,70.42,26,1,0,1245500,0.03,23.1142464,72.4985733,58.99,10010,6.57,79.75,-2.19,2.19,79.75,-2.19,2.19,-0.12,-0.12,0.0,36.0,-37.0,-4.56,-26.56,-0.01,0.0,-0.23,-0.38,-0.38,9.79,-0.94,38.52,1004.93
37576,2899,70.42,26,1,0,1245500,0.03,23.1142464,72.4985733,58.99,10010,6.57,79.75,-2.19,2.19,79.75,-2.19,2.19,-0.06,0.0,0.12,36.0,-35.56,-4.56,-27.0,-0.08,0.0,-0.19,-0.38,-0.38,9.79,-0.96,38.53,1004.94
37577,2899,70.42,26,1,0,1245600,0.02,23.1142464,72.4985733,58.96,10010,6.57,79.75,-2.19,2.19,79.75,-2.19,2.19,0.12,0.12,0.19,36.0,-35.56,-4.56,-27.0,0.0,0.0,-0.21,-0.38,-0.38,9.79,-0.94,38.53,1004.93
37578,2899,70.42,26,1,0,1245600,0.02,23.1142464,72.4985733,58.96,10010,6.53,79.75,-2.19,2.19,79.75,-2.19,2.19,0.06,0.06,0.12,36.0,-35.88,-4.56,-27.0,0.03,0.0,-0.19,-0.38,-0.38,9.79,-0.92,38.54,1004.93
37579,2899,70.42,26,1,0,1245600,0.02,23.1142464,72.4985733,58.96,10010,6.55,79.75,-2.19,2.19,79.75,-2.19,2.19,0.06,-0.19,0.06,36.0,-36.56,-4.56,-27.0,-0.01,0.04,-0.26,-0.38,-0.38,9.79,-0.94,38.54,1004.93
37580,2899,70.42,26,1,0,1245600,0.02,23.1142464,72.4985733,58.96,10010,6.57,79.75,-2.19,2.19,79.75,-2.19,2.19,-0.12,0.0,0.19,36.0,-35.88,-4.19,-27.38,-0.01,0.05,-0.21,-0.38,-0.38,9.79,-0.94,38.54,1004.93
37581,2899,70.42,26,1,0,1245600,0.02,23.1142464,72.4985733,58.96,10010,6.57,79.75,-2.19,2.19,79.75,-2.19,2.19,-0.06,0.0,-0.06,36.0,-37.38,-3.5,-25.75,-0.01,0.02,-0.27,-0.38,-0.38,9.79,-0.94,38.55,1004.93
37582,2899,70.42,26,1,0,1245600,0.02,23.1142464,72.4985733,58.96,10010,6.57,79.75,-2.19,2.19,79.75,-2.19,2.19,0.0,-0.12,0.06,36.0,-37.38,-3.5,-25.75,-0.03,0.01,-0.21,-0.38,-0.38,9.79,-0.88,38.55,1004.93
37583,2900,70.42,26,1,0,1245600,0.02,23.1142464,72.4985733,58.96,10010,6.57,79.75,-2.19,2.19,79.75,-2.19,2.19,-0.06,0.06,-0.12,36.0,-36.25,-5.0,-27.0,0.0,0.0,-0.18,-0.38,-0.38,9.79,-0.99,38.53,1004.94
37584,2900,70.42,26,1,0,1245600,0.02,23.1142464,72.4985733,58.96,10010,6.57,79.75,-2.19,2.19,79.75,-2.19,2.19,0.0,-0.06,0.0,36.0,-36.25,-5.0,-27.0,0.0,-0.01,-0.21,-0.38,-0.38,9.79,-1.1,38.52,1004.95
37585,2900,70.42,26,1,0,1245600,0.02,23.1142464,72.4985733,58.96,10010,6.57,79.75,-2.19,2.19,79.75,-2.19,2.19,-0.06,0.19,0.06,36.0,-36.25,-3.5,-27.0,-0.04,0.0,-0.19,-0.38,-0.38,9.79,-1.06,38.52,1004.95
37586,2900,70.42,26,1,0,1245600,0.02,23.1142464,72.4985733,58.96,10010,6.55,79.75,-2.19,2.19,79.75,-2.19,2.19,0.0,0.25,0.12,36.0,-37.0,-4.19,-26.56,-0.05,0.0,-0.27,-0.38,-0.38,9.79,-1.07,38.52,1004.95
37587,2900,70.42,26,1,0,1245600,0.02,23.1142464,72.4985733,58.96,10010,6.57,79.75,-2.19,2.19,79.75,-2.19,2.19,0.12,0.19,0.0,36.0,-36.56,-4.56,-27.75,-0.03,0.0,-0.19,-0.38,-0.38,9.79,-1.06,38.52,1004.95
37588,2900,70.42,26,1,0,1245600,0.02,23.1142464,72.4985733,58.96,10010,6.55,79.75,-2.19,2.19,79.75,-2.19,2.19,0.19,0.25,0.0,36.0,-36.56,-4.56,-27.75,-0.02,0.0,-0.22,-0.38,-0.38,9.79,-1.11,38.53,1004.95
37589,2900,70.42,26,1,0,1245600,0.02,23.1142464,72.4985733,58.96,10010,6.55,79.75,-2.19,2.19,79.75,-2.19,2.19,-0.06,-0.06,0.06,36.0,-36.25,-4.56,-27.0,-0.02,0.03,-0.26,-0.38,-0.38,9.79,-1.06,38.53,1004.95
37590,2900,70.42,26,1,0,1245600,0.02,23.1142464,72.4985733,58.96,10010,6.55,79.75,-2.19,2.19,79.75,-2.19,2.19,-0.12,0.12,0.0,36.0,-35.88,-4.56,-27.38,0.0,0.03,-0.21,-0.38,-0.38,9.79,-0.97,38.54,1004.94
37591,2900,70.42,26,1,0,1245600,0.02,23.1142464,72.4985733,58.96,10010,6.55,79.75,-2.19,2.19,79.75,-2.19,2.19,-0.12,0.12,0.0,36.0,-36.25,-4.56,-27.0,0.0,0.02,-0.26,-0.38,-0.38,9.79,-1.01,38.54,1004.94
37592,2900,70.42,26,1,0,1245700,0.02,23.1142464,72.4985733,58.94,10010,6.57,79.75,-2.19,2.19,79.75,-2.19,2.19,0.0,-0.06,-0.06,36.0,-35.88,-3.5,-27.0,-0.02,0.0,-0.2,-0.38,-0.38,9.79,-1.08,38.55,1004.95
37593,2900,70.42,26,1,0,1245700,0.02,23.1142464,72.4985733,58.94,10010,6.57,79.75,-2.19,2.19,79.75,-2.19,2.19,0.0,0.0,-0.12,36.0,-35.88,-3.5,-27.0,-0.05,0.0,-0.24,-0.38,-0.38,9.79,-1.1,38.55,1004.95
37594,2900,70.42,26,1,0,1245700,0.02,23.1142464,72.4985733,58.94,10010,6.57,79.75,-2.19,2.19,79.75,-2.19,2.19,-0.06,-0.06,0.06,36.0,-36.56,-3.75,-26.56,-0.05,0.0,-0.21,-0.38,-0.38,9.79,-1.04,38.55,1004.94
37595,2900,70.42,26,1,0,1245700,0.02,23.1142464,72.4985733,58.94,10010,6.53,79.75,-2.19,2.19,79.75,-2.19,2.19,0.0,0.06,0.12,36.0,-36.56,-3.75,-26.19,-0.02,0.02,-0.26,-0.38,-0.38,9.79,-1.05,38.56,1004.95
37596,2901,70.42,26,1,0,1245700,0.02,23.1142464,72.4985733,58.94,10010,6.55,79.75,-2.19,2.19,79.75,-2.19,2.19,0.06,0.0,0.12,36.0,-37.0,-4.56,-27.0,-0.01,0.0,-0.21,-0.38,-0.38,9.79,-1.07,38.54,1004.95
37597,2901,70.42,26,1,0,1245700,0.02,23.1142464,72.4985733,58.94,10010,6.57,79.75,-2.19,2.19,79.75,-2.19,2.19,0.06,0.06,0.0,36.0,-37.0,-5.0,-27.38,0.0,0.01,-0.21,-0.38,-0.38,9.79,-1.04,38.53,1004.94
37598,2901,70.42,26,1,0,1245700,0.02,23.1142464,72.4985733,58.94,10010,6.57,79.75,-2.19,2.19,79.75,-2.19,2.19,0.06,0.19,-0.12,36.0,-35.88,-4.56,-27.38,-0.03,0.05,-0.22,-0.38,-0.38,9.79,-0.98,38.53,1004.94
37599,2901,70.42,26,1,0,1245700,0.02,23.1142464,72.4985733,58.94,10010,6.55,79.75,-2.19,2.19,79.75,-2.19,2.19,0.12,0.25,-0.12,36.0,-35.88,-4.56,-27.38,-0.02,0.03,-0.23,-0.38,-0.38,9.79,-1.06,38.53,1004.95
37600,2901,70.42,26,1,0,1245700,0.02,23.1142464,72.4985733,58.94,10010,6.55,79.75,-2.19,2.19,79.75,-2.19,2.19,-0.12,0.25,-0.19,36.0,-36.25,-4.56,-27.38,0.0,0.01,-0.21,-0.38,-0.38,9.79,-1.04,38.53,1004.94
37601,2901,70.42,26,1,0,1245700,0.02,23.1142464,72.4985733,58.94,10010,6.5,79.75,-2.19,2.19,79.75,-2.19,2.19,-0.06,-0.06,-0.25,36.0,-37.38,-3.75,-25.75,-0.02,0.02,-0.27,-0.38,-0.38,9.79,-1.06,38.54,1004.95
37602,2901,70.42,26,1,0,1245700,0.02,23.1142464,72.4985733,58.94,10010,6.55,79.75,-2.19,2.19,79.75,-2.19,2.19,-0.12,0.19,-0.19,36.0,-36.25,-5.0,-27.88,-0.02,0.0,-0.23,-0.38,-0.38,9.79,-0.94,38.54,1004.93
37603,2901,70.42,26,1,0,1245700,0.02,23.1142464,72.4985733,58.94,10010,6.55,79.75,-2.19,2.19,79.75,-2.19,2.19,-0.06,-0.06,-0.12,36.0,-36.56,-4.19,-26.56,-0.01,0.0,-0.21,-0.38,-0.38,9.79,-1.0,38.55,1004.94
37604,2901,70.42,26,1,0,1245700,0.02,23.1142464,72.4985733,58.94,10010,6.55,79.75,-2.19,2.19,79.75,-2.19,2.19,0.0,0.06,0.0,36.0,-36.56,-4.19,-26.56,-0.02,0.0,-0.19,-0.38,-0.38,9.79,-1.01,38.55,1004.94
37605,2901,70.42,26,1,0,1245700,0.02,23.1142464,72.4985733,58.94,10010,6.55,79.75,-2.19,2.19,79.75,-2.19,2.19,-0.06,0.06,0.0,36.0,-36.56,-5.25,-27.88,-0.03,0.03,-0.25,-0.38,-0.38,9.79,-1.08,38.56,1004.95
37606,2901,70.42,26,1,0,1245700,0.02,23.1142464,72.4985733,58.94,10010,6.55,79.75,-2.19,2.19,79.75,-2.19,2.19,0.06,0.06,0.0,36.0,-36.56,-4.56,-27.0,-0.02,0.0,-0.2,-0.38,-0.38,9.79,-1.03,38.56,1004.94
37607,2901,70.42,26,1,0,1245800,0.01,23.1142445,72.4985733,58.92,10010,6.55,79.75,-2.19,2.19,79.75,-2.19,2.19,0.0,0.12,0.0,36.0,-37.0,-4.19,-25.75,0.0,0.02,-0.23,-0.38,-0.38,9.79,-0.99,38.56,1004.94
37608,2901,70.42,26,1,0,1245800,0.01,23.1142445,72.4985733,58.92,10010,6.57,79.75,-2.19,2.19,79.75,-2.19,2.19,-0.12,0.19,-0.06,36.0,-36.56,-3.75,-26.56,0.0,0.02,-0.2,-0.38,-0.38,9.79,-1.02,38.57,1004.94
37609,2902,70.42,26,1,0,1245800,0.01,23.1142445,72.4985733,58.92,10010,6.57,79.75,-2.19,2.19,79.75,-2.19,2.19,0.0,0.0,-0.06,36.0,-36.25,-5.0,-27.0,-0.01,0.04,-0.24,-0.38,-0.38,9.79,-0.99,38.54,1004.94
37610,2902,70.42,26,1,0,1245800,0.01,23.1142445,72.4985733,58.92,10010,6.55,79.75,-2.19,2.19,79.75,-2.19,2.19,-0.06,0.12,-0.12,36.0,-36.25,-4.56,-26.56,-0.02,0.01,-0.21,-0.38,-0.38,9.79,-0.94,38.53,1004.93
37611,2902,70.42,26,1,0,1245800,0.01,23.1142445,72.4985733,58.92,10010,6.57,79.75,-2.19,2.19,79.75,-2.19,2.19,-0.06,0.06,-0.12,36.0,-36.25,-4.56,-26.56,-0.05,0.0,-0.2,-0.38,-0.38,9.79,-0.92,38.53,1004.93
37612,2902,70.42,26,1,0,1245800,0.01,23.1142445,72.4985733,58.92,10010,6.57,79.75,-2.19,2.19,79.75,-2.19,2.19,-0.06,0.0,0.06,36.0,-36.56,-4.19,-28.25,-0.03,0.01,-0.24,-0.38,-0.38,9.79,-0.87,38.53,1004.92
37613,2902,70.42,26,1,0,1245800,0.01,23.1142445,72.4985733,58.92,10010,6.5,79.75,-2.19,2.19,79.75,-2.19,2.19,0.06,0.12,0.12,36.0,-37.0,-5.0,-27.38,-0.02,0.0,-0.24,-0.38,-0.38,9.79,-0.88,38.54,1004.92
37614,2902,70.42,26,1,0,1245800,0.01,23.1142445,72.4985733,58.92,10010,6.55,79.75,-2.19,2.19,79.75,-2.19,2.19,0.0,0.0,0.06,36.0,-36.25,-5.0,-27.88,-0.01,0.01,-0.23,-0.38,-0.38,9.79,-0.83,38.54,1004.92
37615,2902,70.42,26,1,0,1245800,0.01,23.1142445,72.4985733,58.92,10010,6.57,79.75,-2.19,2.19,79.75,-2.19,2.19,0.06,-0.12,0.06,36.0,-36.56,-3.5,-27.0,-0.02,0.03,-0.22,-0.38,-0.38,9.79,-0.91,38.55,1004.93
37616,2902,70.42,26,1,0,1245800,0.01,23.1142445,72.4985733,58.92,10010,6.55,79.75,-2.19,2.19,79.75,-2.19,2.19,0.06,-0.12,0.12,36.0,-36.56,-3.5,-27.0,-0.01,0.03,-0.21,-0.38,-0.38,9.79,-1.0,38.55,1004.94
37617,2902,70.42,26,1,0,1245800,0.01,23.1142445,72.4985733,58.92,10010,6.57,79.75,-2.19,2.19,79.75,-2.19,2.19,0.06,0.0,0.0,36.0,-36.69,-4.56,-27.38,-0.01,0.03,-0.22,-0.38,-0.38,9.79,-1.06,38.56,1004.95
37618,2902,70.42,26,1,0,1245800,0.01,23.1142445,72.4985733,58.92,10010,6.55,79.75,-2.19,2.19,79.75,-2.19,2.19,-0.06,0.19,0.0,36.0,-36.69,-5.0,-27.06,0.0,0.02,-0.23,-0.38,-0.38,9.79,-0.96,38.56,1004.93
37619,2902,70.42,26,1,0,1245800,0.01,23.1142445,72.4985733,58.92,10010,6.55,79.75,-2.19,2.19,79.75,-2.19,2.19,0.06,-0.06,-0.06,36.0,-37.38,-5.69,-26.19,-0.01,0.02,-0.23,-0.38,-0.38,9.79,-0.97,38.57,1004.94
37620,2902,70.42,26,1,0,1245800,0.01,23.1142445,72.4985733,58.92,10010,6.55,79.75,-2.19,2.19,79.75,-2.19,2.19,0.0,-0.19,-0.06,36.0,-36.25,-4.19,-27.38,-0.01,0.01,-0.2,-0.38,-0.38,9.79,-1.05,38.57,1004.94
37621,2902,70.42,26,1,0,1245900,0.02,23.1142445,72.4985733,58.92,10010,6.57,79.75,-2.19,2.19,79.75,-2.19,2.19,-0.06,0.12,-0.06,36.0,-36.25,-4.19,-27.38,-0.01,0.0,-0.25,-0.38,-0.38,9.79,-1.06,38.58,1004.95
37622,2903,70.42,26,1,0,1245900,0.02,23.1142445,72.4985733,58.91,10010,6.53,79.75,-2.19,2.19,79.75,-2.19,2.19,0.12,0.06,-0.06,36.0,-36.56,-4.56,-26.56,-0.02,0.01,-0.21,-0.38,-0.38,9.79,-1.07,38.55,1004.95
37623,2903,70.42,26,1,0,1245900,0.02,23.1142445,72.4985733,58.91,10010,6.53,79.75,-2.19,2.19,79.75,-2.19,2.19,0.0,-0.12,0.0,36.0,-36.56,-4.56,-26.19,-0.02,0.0,-0.19,-0.38,-0.38,9.79,-1.04,38.54,1004.94
37624,2903,70.42,26,1,0,1245900,0.02,23.1142445,72.4985733,58.91,10010,6.53,79.75,-2.19,2.19,79.75,-2.19,2.19,0.0,0.25,0.06,36.0,-37.0,-4.56,-26.56,-0.02,0.0,-0.23,-0.38,-0.38,9.79,-0.97,38.54,1004.94
37625,2903,70.42,26,1,0,1245900,0.02,23.1142445,72.4985733,58.91,10010,6.53,79.75,-2.19,2.19,79.75,-2.19,2.19,0.06,0.12,-0.06,36.0,-36.56,-3.5,-26.19,-0.01,0.02,-0.23,-0.38,-0.38,9.79,-1.01,38.54,1004.94
37626,2903,70.42,26,1,0,1245900,0.02,23.1142445,72.4985733,58.91,10010,6.5,79.75,-2.19,2.19,79.75,-2.19,2.19,-0.12,0.0,0.12,36.0,-36.56,-3.75,-26.56,0.0,0.02,-0.2,-0.38,-0.38,9.79,-1.07,38.54,1004.95
37627,2903,70.42,26,1,0,1245900,0.02,23.1142445,72.4985733,58.91,10010,6.57,79.75,-2.19,2.19,79.75,-2.19,2.19,0.06,-0.25,-0.06,36.0,-36.56,-3.75,-26.56,0.0,0.0,-0.23,-0.38,-0.38,9.79,-0.99,38.55,1004.94
37628,2903,70.42,26,1,0,1245900,0.02,23.1142445,72.4985733,58.91,10010,6.52,79.75,-2.19,2.19,79.75,-2.19,2.19,-0.06,-0.06,-0.06,36.0,-37.0,-3.75,-27.38,-0.01,0.03,-0.25,-0.38,-0.38,9.79,-1.03,38.56,1004.94
37629,2903,70.42,26,1,0,1245900,0.02,23.1142445,72.4985733,58.91,10010,6.57,79.75,-2.19,2.19,79.75,-2.19,2.19,0.06,-0.06,-0.19,36.0,-37.0,-5.0,-27.0,-0.03,0.0,-0.22,-0.38,-0.38,9.79,-1.02,38.56,1004.94
37630,2903,70.42,26,1,0,1245900,0.02,23.1142445,72.4985733,58.91,10010,6.55,79.75,-2.19,2.19,79.75,-2.19,2.19,-0.06,0.0,-0.12,36.0,-35.88,-3.75,-27.38,-0.04,0.0,-0.2,-0.38,-0.38,9.79,-0.99,38.57,1004.94
37631,2903,70.42,26,1,0,1245900,0.02,23.1142445,72.4985733,58.91,10010,6.53,79.75,-2.19,2.19,79.75,-2.19,2.19,0.0,-0.12,-0.06,36.0,-35.88,-3.75,-27.38,-0.02,0.0,-0.22,-0.38,-0.38,9.79,-1.09,38.57,1004.95
37632,2903,70.42,26,1,0,1245900,0.02,23.1142445,72.4985733,58.91,10010,6.55,79.75,-2.19,2.19,79.75,-2.19,2.19,-0.06,0.19,-0.19,36.0,-35.88,-3.75,-27.38,-0.02,0.0,-0.22,-0.38,-0.38,9.79,-1.02,38.58,1004.94
37633,2903,70.42,26,1,0,1245900,0.02,23.1142445,72.4985733,58.91,10010,6.57,79.75,-2.19,2.19,79.75,-2.19,2.19,0.0,0.06,0.12,36.0,-36.25,-4.19,-28.25,0.0,0.0,-0.22,-0.38,-0.38,9.79,-0.97,38.58,1004.94
37634,2903,70.42,26,1,0,1245900,0.02,23.1142445,72.4985733,58.91,10010,6.57,79.75,-2.19,2.19,79.75,-2.19,2.19,0.19,-0.38,0.12,36.0,-37.0,-4.19,-27.38,-0.01,0.01,-0.25,-0.38,-0.38,9.79,-0.99,38.58,1004.94
37635,2904,70.42,26,1,0,1250000,0.02,23.1142445,72.4985733,58.89,10010,6.57,79.75,-2.19,2.19,79.75,-2.19,2.19,0.06,0.0,0.06,36.0,-36.25,-5.0,-26.56,-0.02,0.03,-0.21,-0.38,-0.38,9.79,-1.06,38.56,1004.95
37636,2904,70.42,26,1,0,1250000,0.02,23.1142445,72.4985733,58.89,10010,6.57,79.75,-2.19,2.19,79.75,-2.19,2.19,-0.12,0.19,-0.12,36.0,-37.0,-5.0,-25.75,-0.02,0.01,-0.23,-0.38,-0.38,9.79,-1.03,38.55,1004.94
37637,2904,70.42,26,1,0,1250000,0.02,23.1142445,72.4985733,58.89,10010,6.55,79.75,-2.19,2.19,79.75,-2.19,2.19,0.0,0.06,-0.06,36.0,-36.56,-3.06,-27.38,-0.02,0.0,-0.21,-0.38,-0.38,9.79,-1.04,38.55,1004.94
37638,2904,70.42,26,1,0,1250000,0.02,23.1142445,72.4985733,58.89,10010,6.55,79.75,-2.19,2.19,79.75,-2.19,2.19,0.0,-0.06,-0.06,36.0,-36.56,-3.06,-27.38,-0.02,0.01,-0.2,-0.38,-0.38,9.79,-1.04,38.55,1004.94
37639,2904,70.42,26,1,0,1250000,0.02,23.1142445,72.4985733,58.89,10010,6.55,79.75,-2.19,2.19,79.75,-2.19,2.19,-0.06,0.06,-0.12,36.0,-36.56,-5.0,-27.88,-0.02,0.0,-0.22,-0.38,-0.38,9.79,-1.04,38.55,1004.94
37640,2904,70.42,26,1,0,1250000,0.02,23.1142445,72.4985733,58.89,10010,6.55,79.75,-2.19,2.19,79.75,-2.19,2.19,0.06,-0.12,0.0,36.0,-37.0,-5.0,-25.75,-0.03,0.0,-0.21,-0.38,-0.38,9.79,-1.03,38.56,1004.94
37641,2904,70.42,26,1,0,1250000,0.02,23.1142445,72.4985733,58.89,10010,6.57,79.75,-2.19,2.19,79.75,-2.19,2.19,0.0,-0.12,0.12,36.0,-36.25,-4.56,-27.0,-0.02,0.02,-0.23,-0.38,-0.38,9.79,-0.93,38.56,1004.93
37642,2904,70.42,26,1,0,1250000,0.02,23.1142445,72.4985733,58.89,10010,6.57,79.75,-2.19,2.19,79.75,-2.19,2.19,0.0,0.0,0.19,36.0,-37.38,-3.5,-26.56,-0.02,0.01,-0.21,-0.38,-0.38,9.79,-0.94,38.57,1004.93
37643,2904,70.42,26,1,0,1250000,0.02,23.1142445,72.4985733,58.89,10010,6.55,79.75,-2.19,2.19,79.75,-2.19,2.19,0.06,0.0,0.12,36.0,-37.38,-3.5,-26.56,0.0,0.03,-0.22,-0.38,-0.38,9.79,-0.98,38.57,1004.94
37644,2904,70.42,26,1,0,1250000,0.02,23.1142445,72.4985733,58.89,10010,6.55,79.75,-2.19,2.19,79.75,-2.19,2.19,0.0,0.0,0.19,36.0,-35.88,-4.56,-27.38,-0.01,0.03,-0.19,-0.38,-0.38,9.79,-0.89,38.58,1004.93
37645,2904,70.42,26,1,0,1250000,0.02,23.1142445,72.4985733,58.89,10010,6.57,79.75,-2.19,2.19,79.75,-2.19,2.19,-0.06,-0.12,0.12,36.0,-36.25,-3.75,-27.0,0.0,0.03,-0.2,-0.38,-0.38,9.79,-0.9,38.58,1004.93
37646,2904,70.42,26,1,0,1250000,0.02,23.1142445,72.4985733,58.89,10010,6.57,79.75,-2.19,2.19,79.75,-2.19,2.19,0.0,0.0,0.06,36.0,-36.25,-4.19,-26.56,-0.01,0.01,-0.22,-0.38,-0.38,9.79,-0.88,38.58,1004.93
37647,2904,70.42,26,1,0,1250000,0.02,23.1142445,72.4985733,58.89,10010,6.55,79.75,-2.19,2.19,79.75,-2.19,2.19,0.0,0.06,-0.06,36.0,-37.0,-4.19,-27.0,-0.02,0.02,-0.21,-0.38,-0.38,9.79,-0.9,38.59,1004.93
37648,2905,70.42,26,1,0,1250100,0.03,23.1142445,72.4985733,58.89,10010,6.57,79.75,-2.19,2.19,79.75,-2.19,2.19,0.0,0.0,-0.06,36.0,-35.88,-3.75,-27.38,-0.03,0.0,-0.23,-0.38,-0.38,9.79,-0.83,38.56,1004.92
37649,2905,70.42,26,1,0,1250100,0.03,23.1142445,72.4985733,58.89,10010,6.57,79.75,-2.19,2.19,79.75,-2.19,2.19,-0.12,0.12,0.0,36.0,-36.25,-4.56,-26.56,-0.02,0.0,-0.22,-0.38,-0.38,9.79,-0.67,38.55,1004.9
37650,2905,70.42,26,1,0,1250100,0.03,23.1142445,72.4985733,58.89,10010,6.53,79.75,-2.19,2.19,79.75,-2.19,2.19,0.06,0.0,0.0,36.0,-36.25,-4.56,-26.56,0.0,0.0,-0.21,-0.38,-0.38,9.79,-0.7,38.54,1004.9
37651,2905,70.42,26,1,0,1250100,0.03,23.1142445,72.4985733,58.89,10010,6.55,79.75,-2.19,2.19,79.75,-2.19,2.19,0.0,0.0,0.0,36.0,-37.0,-4.56,-27.75,-0.01,0.03,-0.21,-0.38,-0.38,9.79,-0.72,38.54,1004.91
37652,2905,70.42,26,1,0,1250100,0.03,23.1142445,72.4985733,58.89,10010,6.53,79.75,-2.19,2.19,79.75,-2.19,2.19,0.0,0.12,0.0,36.0,-37.0,-3.75,-27.38,-0.02,0.01,-0.25,-0.38,-0.38,9.79,-0.71,38.55,1004.91
37653,2905,70.42,26,1,0,1250100,0.03,23.1142445,72.4985733,58.89,10010,6.53,79.75,-2.19,2.19,79.75,-2.19,2.19,0.0,-0.06,0.06,36.0,-36.25,-3.75,-26.19,-0.03,0.0,-0.21,-0.38,-0.38,9.79,-0.68,38.55,1004.9
37654,2905,70.42,26,1,0,1250100,0.03,23.1142445,72.4985733,58.89,10010,6.55,79.75,-2.19,2.19,79.75,-2.19,2.19,0.0,0.06,-0.06,36.0,-37.0,-3.75,-27.0,-0.03,0.01,-0.2,-0.38,-0.38,9.79,-0.65,38.55,1004.9
37655,2905,70.42,26,1,0,1250100,0.03,23.1142445,72.4985733,58.89,10010,6.53,79.75,-2.19,2.19,79.75,-2.19,2.19,-0.12,0.06,-0.12,36.0,-37.0,-3.75,-27.0,-0.02,0.01,-0.22,-0.38,-0.38,9.79,-0.59,38.56,1004.89
37656,2905,70.42,26,1,0,1250100,0.03,23.1142445,72.4985733,58.89,10010,6.55,79.75,-2.19,2.19,79.75,-2.19,2.19,-0.06,0.0,-0.12,36.0,-35.56,-3.75,-26.56,-0.02,0.03,-0.22,-0.38,-0.38,9.79,-0.59,38.56,1004.89
37657,2905,70.42,26,1,0,1250100,0.03,23.1142445,72.4985733,58.89,10010,6.55,79.75,-2.19,2.19,79.75,-2.19,2.19,-0.06,0.25,0.0,36.0,-36.56,-3.5,-27.38,-0.01,0.02,-0.23,-0.38,-0.38,9.79,-0.72,38.57,1004.91
37658,2905,70.42,26,1,0,1250100,0.03,23.1142445,72.4985733,58.89,10010,6.53,79.75,-2.19,2.19,79.75,-2.19,2.19,-0.12,0.0,0.06,36.0,-36.25,-3.75,-26.19,-0.01,0.0,-0.18,-0.38,-0.38,9.79,-0.72,38.57,1004.91
37659,2905,70.42,26,1,0,1250100,0.03,23.1142445,72.4985733,58.89,10010,6.53,79.75,-2.19,2.19,79.75,-2.19,2.19,0.12,-0.19,0.06,36.0,-36.25,-3.75,-27.0,-0.03,0.0,-0.21,-0.38,-0.38,9.79,-0.76,38.58,1004.91
37660,2905,70.42,26,1,0,1250100,0.03,23.1142445,72.4985733,58.89,10010,6.59,79.75,-2.19,2.19,79.75,-2.19,2.19,0.06,-0.12,0.12,36.0,-36.25,-3.75,-27.0,-0.03,0.0,-0.22,-0.38,-0.38,9.79,-0.71,38.58,1004.9
37661,2906,70.42,26,1,0,1250200,0.05,23.1142464,72.4985733,58.87,10010,6.55,79.75,-2.19,2.19,79.75,-2.19,2.19,-0.06,0.06,-0.06,36.0,-36.56,-3.06,-27.38,-0.01,0.03,-0.21,-0.38,-0.38,9.79,-0.78,38.56,1004.91
37662,2906,70.42,26,1,0,1250200,0.05,23.1142464,72.4985733,58.87,10010,6.55,79.75,-2.19,2.19,79.75,-2.19,2.19,0.0,0.19,0.0,36.0,-37.38,-4.19,-27.06,0.0,0.01,-0.24,-0.38,-0.38,9.79,-0.88,38.55,1004.92
37663,2906,70.42,26,1,0,1250200,0.05,23.1142464,72.4985733,58.87,10010,6.57,79.75,-2.19,2.19,79.75,-2.19,2.19,0.0,0.0,-0.06,36.0,-37.38,-5.0,-27.0,-0.03,0.01,-0.24,-0.38,-0.38,9.79,-1.0,38.55,1004.94
37664,2906,70.42,26,1,0,1250200,0.05,23.1142464,72.4985733,58.87,10010,6.55,79.75,-2.19,2.19,79.75,-2.19,2.19,-0.12,0.06,0.06,36.0,-36.25,-4.56,-24.5,-0.01,0.01,-0.25,-0.38,-0.38,9.79,-1.05,38.56,1004.94
37665,2906,70.42,26,1,0,1250200,0.05,23.1142464,72.4985733,58.87,10010,6.55,79.75,-2.19,2.19,79.75,-2.19,2.19,0.06,-0.06,0.0,36.0,-35.88,-3.75,-27.38,-0.02,0.0,-0.21,-0.38,-0.38,9.79,-1.06,38.56,1004.95
37666,2906,70.42,26,1,0,1250200,0.05,23.1142464,72.4985733,58.87,10010,6.57,79.75,-2.19,2.19,79.75,-2.19,2.19,0.0,0.19,0.0,36.0,-35.88,-3.75,-27.38,-0.01,0.01,-0.2,-0.38,-0.38,9.79,-1.03,38.57,1004.94
37667,2906,70.42,26,1,0,1250200,0.05,23.1142464,72.4985733,58.87,10010,6.57,79.75,-2.19,2.19,79.75,-2.19,2.19,0.06,0.06,0.06,36.0,-35.56,-4.56,-27.0,-0.01,0.0,-0.23,-0.38,-0.38,9.79,-1.09,38.57,1004.95
37668,2906,70.42,26,1,0,1250200,0.05,23.1142464,72.4985733,58.87,10010,6.55,79.75,-2.19,2.19,79.75,-2.19,2.19,-0.06,0.0,0.06,36.0,-37.0,-4.56,-27.38,-0.03,0.0,-0.23,-0.38,-0.38,9.79,-1.11,38.58,1004.95
37669,2906,70.42,26,1,0,1250200,0.05,23.1142464,72.4985733,58.87,10010,6.55,79.75,-2.19,2.19,79.75,-2.19,2.19,-0.12,0.12,0.06,36.0,-37.0,-4.56,-27.0,-0.01,0.02,-0.24,-0.38,-0.38,9.79,-1.12,38.59,1004.95
37670,2906,70.42,26,1,0,1250200,0.05,23.1142464,72.4985733,58.87,10010,6.55,79.75,-2.19,2.19,79.75,-2.19,2.19,0.06,0.12,0.0,36.0,-36.56,-4.56,-27.0,-0.02,0.03,-0.21,-0.38,-0.38,9.79,-1.13,38.59,1004.95
37671,2906,70.42,26,1,0,1250200,0.05,23.1142464,72.4985733,58.87,10010,6.55,79.75,-2.19,2.19,79.75,-2.19,2.19,0.0,0.12,0.06,36.0,-36.56,-4.56,-27.0,-0.01,0.02,-0.24,-0.38,-0.38,9.79,-1.03,38.6,1004.94
37672,2906,70.42,26,1,0,1250200,0.05,23.1142464,72.4985733,58.87,10010,6.57,79.75,-2.19,2.19,79.75,-2.19,2.19,0.0,0.06,0.0,36.0,-36.56,-4.19,-26.56,-0.02,0.03,-0.21,-0.38,-0.38,9.79,-1.05,38.6,1004.95
37673,2906,70.42,26,1,0,1250200,0.05,23.1142464,72.4985733,58.87,10010,6.57,79.75,-2.19,2.19,79.75,-2.19,2.19,-0.06,0.06,-0.06,36.0,-37.0,-5.0,-27.0,-0.02,0.02,-0.26,-0.38,-0.38,9.79,-1.07,38.6,1004.95
37674,2907,70.42,26,1,0,1250300,0.05,23.1142464,72.4985733,58.86,10010,6.57,79.75,-2.19,2.19,79.75,-2.19,2.19,-0.06,0.06,-0.06,36.0,-35.88,-4.56,-27.0,0.0,0.02,-0.21,-0.38,-0.38,9.79,-1.07,38.58,1004.95
37675,2907,70.42,26,1,0,1250300,0.05,23.1142464,72.4985733,58.86,10010,6.57,79.75,-2.19,2.19,79.75,-2.19,2.19,0.0,0.06,0.12,36.0,-35.88,-4.56,-26.56,-0.02,0.0,-0.23,-0.38,-0.38,9.79,-1.02,38.57,1004.94
37676,2907,70.42,26,1,0,1250300,0.05,23.1142464,72.4985733,58.86,10010,6.55,79.75,-2.19,2.19,79.75,-2.19,2.19,0.06,0.0,0.12,36.0,-37.0,-3.06,-26.56,-0.02,0.02,-0.21,-0.38,-0.38,9.79,-1.11,38.57,1004.95
37677,2907,70.42,26,1,0,1250300,0.05,23.1142464,72.4985733,58.86,10010,6.55,79.75,-2.19,2.19,79.75,-2.19,2.19,-0.06,0.0,0.0,36.0,-37.0,-3.06,-26.56,-0.02,0.0,-0.22,-0.38,-0.38,9.79,-1.07,38.57,1004.95
37678,2907,70.42,26,1,0,1250300,0.05,23.1142464,72.4985733,58.86,10010,6.57,79.75,-2.19,2.19,79.75,-2.19,2.19,-0.06,-0.06,0.0,36.0,-37.0,-4.56,-27.0,-0.01,0.02,-0.23,-0.38,-0.38,9.79,-1.04,38.57,1004.94
37679,2907,70.42,26,1,0,1250300,0.05,23.1142464,72.4985733,58.86,10010,6.57,79.75,-2.19,2.19,79.75,-2.19,2.19,0.19,-0.25,-0.12,36.0,-36.25,-4.19,-26.56,-0.01,0.03,-0.22,-0.38,-0.38,9.79,-1.05,38.58,1004.94
37680,2907,70.42,26,1,0,1250300,0.05,23.1142464,72.4985733,58.86,10010,6.55,79.75,-2.19,2.19,79.75,-2.19,2.19,0.06,0.12,0.0,36.0,-36.69,-4.56,-27.88,0.0,0.02,-0.22,-0.38,-0.38,9.79,-1.12,38.58,1004.95
37681,2907,70.42,26,1,0,1250300,0.05,23.1142464,72.4985733,58.86,10010,6.57,79.75,-2.19,2.19,79.75,-2.19,2.19,0.0,0.0,0.0,36.0,-35.88,-4.56,-26.19,-0.02,0.04,-0.22,-0.38,-0.38,9.79,-1.06,38.59,1004.95
37682,2907,70.42,26,1,0,1250300,0.05,23.1142464,72.4985733,58.86,10010,6.55,79.75,-2.19,2.19,79.75,-2.19,2.19,-0.06,0.0,-0.06,36.0,-35.88,-4.56,-26.19,-0.01,0.0,-0.21,-0.38,-0.38,9.79,-1.12,38.59,1004.95
37683,2907,70.42,26,1,0,1250300,0.05,23.1142464,72.4985733,58.86,10010,6.57,79.75,-2.19,2.19,79.75,-2.19,2.19,0.0,0.0,0.0,36.0,-36.25,-4.56,-28.25,-0.01,0.03,-0.22,-0.38,-0.38,9.79,-1.03,38.6,1004.94
37684,2907,70.42,26,1,0,1250300,0.05,23.1142464,72.4985733,58.86,10010,6.57,79.75,-2.19,2.19,79.75,-2.19,2.19,0.06,0.0,0.0,36.0,-37.0,-5.0,-27.06,-0.03,0.0,-0.22,-0.38,-0.38,9.79,-1.01,38.6,1004.94
37685,2907,70.42,26,1,0,1250300,0.05,23.1142464,72.4985733,58.86,10010,6.55,79.75,-2.19,2.19,79.75,-2.19,2.19,0.06,0.0,0.0,36.0,-36.69,-4.19,-27.38,-0.02,0.0,-0.24,-0.38,-0.38,9.79,-1.07,38.61,1004.95
37686,2907,70.42,26,1,0,1250300,0.05,23.1142464,72.4985733,58.86,10010,6.55,79.75,-2.19,2.19,79.75,-2.19,2.19,-0.06,-0.06,0.0,36.0,-35.88,-5.0,-25.38,0.0,0.01,-0.19,-0.38,-0.38,9.79,-1.07,38.61,1004.95
37687,2908,70.42,26,1,0,1250400,0.05,23.1142464,72.4985733,58.84,10010,6.55,79.75,-2.19,2.19,79.75,-2.19,2.19,0.06,0.0,0.12,36.0,-36.25,-3.5,-27.06,-0.03,0.03,-0.24,-0.38,-0.38,9.79,-1.12,38.59,1004.95
37688,2908,70.42,26,1,0,1250400,0.05,23.1142464,72.4985733,58.84,10010,6.52,79.75,-2.19,2.19,79.75,-2.19,2.19,0.0,0.06,0.06,36.0,-36.69,-4.19,-27.06,-0.01,0.02,-0.2,-0.38,-0.38,9.79,-1.09,38.58,1004.95
37689,2908,70.42,26,1,0,1250400,0.05,23.1142464,72.4985733,58.84,10010,6.55,79.75,-2.19,2.19,79.75,-2.19,2.19,0.0,0.0,0.06,36.0,-36.69,-4.19,-27.06,-0.02,0.02,-0.23,-0.38,-0.38,9.79,-1.01,38.57,1004.94
37690,2908,70.42,26,1,0,1250400,0.05,23.1142464,72.4985733,58.84,10010,6.57,79.75,-2.19,2.19,79.75,-2.19,2.19,0.0,-0.06,-0.06,36.0,-37.0,-4.56,-26.19,-0.01,0.03,-0.22,-0.38,-0.38,9.79,-1.08,38.57,1004.95
37691,2908,70.42,26,1,0,1250400,0.05,23.1142464,72.4985733,58.84,10010,6.55,79.75,-2.19,2.19,79.75,-2.19,2.19,0.06,-0.06,0.06,36.0,-36.25,-4.19,-27.38,-0.01,0.01,-0.24,-0.38,-0.38,9.79,-1.04,38.58,1004.94
37692,2908,70.42,26,1,0,1250400,0.05,23.1142464,72.4985733,58.84,10010,6.57,79.75,-2.19,2.19,79.75,-2.19,2.19,-0.06,-0.06,0.0,36.0,-36.69,-4.56,-26.19,0.0,0.0,-0.23,-0.38,-0.38,9.79,-1.11,38.58,1004.95
37693,2908,70.42,26,1,0,1250400,0.05,23.1142464,72.4985733,58.84,10010,6.55,79.75,-2.19,2.19,79.75,-2.19,2.19,0.12,0.06,-0.19,36.0,-36.69,-4.56,-26.19,-0.01,0.0,-0.21,-0.38,-0.38,9.79,-1.16,38.59,1004.96
37694,2908,70.42,26,1,0,1250400,0.05,23.1142464,72.4985733,58.84,10010,6.57,79.75,-2.19,2.19,79.75,-2.19,2.19,-0.06,0.19,-0.12,36.0,-36.56,-4.19,-26.56,-0.02,0.02,-0.23,-0.38,-0.38,9.79,-1.15,38.6,1004.96
37695,2908,70.42,26,1,0,1250400,0.05,23.1142464,72.4985733,58.84,10010,6.57,79.75,-2.19,2.19,79.75,-2.19,2.19,0.0,-0.12,0.06,36.0,-36.69,-3.75,-27.06,-0.02,0.0,-0.25,-0.38,-0.38,9.79,-1.1,38.6,1004.95
37696,2908,70.42,26,1,0,1250400,0.05,23.1142464,72.4985733,58.84,10010,6.57,79.75,-2.19,2.19,79.75,-2.19,2.19,-0.06,0.06,0.0,36.0,-36.25,-4.19,-27.38,-0.02,0.0,-0.22,-0.38,-0.38,9.79,-1.01,38.61,1004.94
37697,2908,70.42,26,1,0,1250400,0.05,23.1142464,72.4985733,58.84,10010,6.57,79.75,-2.19,2.19,79.75,-2.19,2.19,0.0,0.12,-0.06,36.0,-36.69,-4.56,-27.06,-0.02,0.04,-0.22,-0.38,-0.38,9.79,-0.99,38.61,1004.94
37698,2908,70.42,26,1,0,1250400,0.05,23.1142464,72.4985733,58.84,10010,6.55,79.75,-2.19,2.19,79.75,-2.19,2.19,0.0,0.19,0.0,36.0,-36.69,-4.56,-27.06,-0.02,0.03,-0.21,-0.38,-0.38,9.79,-0.97,38.61,1004.94
37699,2908,70.42,26,1,0,1250400,0.05,23.1142464,72.4985733,58.84,10010,6.55,79.75,-2.19,2.19,79.75,-2.19,2.19,-0.06,0.12,0.0,36.0,-35.88,-3.75,-27.88,-0.01,0.0,-0.24,-0.38,-0.38,9.79,-0.93,38.62,1004.93
37700,2909,70.42,26,1,0,1250500,0.06,23.1142464,72.4985733,58.82,10010,6.55,79.75,-2.19,2.19,79.75,-2.19,2.19,-0.19,0.12,-0.06,36.0,-36.69,-3.75,-26.19,-0.03,0.0,-0.22,-0.38,-0.38,9.79,-1.06,38.59,1004.95
37701,2909,70.42,26,1,0,1250500,0.06,23.1142464,72.4985733,58.82,10010,6.55,79.75,-2.19,2.19,79.75,-2.19,2.19,0.0,-0.06,0.06,36.0,-35.88,-4.56,-27.38,-0.02,0.01,-0.21,-0.38,-0.38,9.79,-1.02,38.58,1004.94
37702,2909,70.42,26,1,0,1250500,0.06,23.1142464,72.4985733,58.82,10010,6.57,79.75,-2.19,2.19,79.75,-2.19,2.19,-0.19,-0.12,0.06,36.0,-36.69,-5.0,-26.19,0.0,0.0,-0.25,-0.38,-0.38,9.79,-0.99,38.58,1004.94
37703,2909,70.42,26,1,0,1250500,0.06,23.1142464,72.4985733,58.82,10010,6.55,79.75,-2.19,2.19,79.75,-2.19,2.19,0.0,0.0,0.12,36.0,-35.88,-5.0,-27.88,-0.03,0.02,-0.24,-0.38,-0.38,9.79,-1.07,38.58,1004.95
37704,2909,70.42,26,1,0,1250500,0.06,23.1142464,72.4985733,58.82,10010,6.57,79.75,-2.19,2.19,79.75,-2.19,2.19,0.0,0.0,0.0,36.0,-35.88,-5.0,-27.88,-0.02,0.0,-0.2,-0.38,-0.38,9.79,-1.1,38.59,1004.95
37705,2909,70.42,26,1,0,1250500,0.06,23.1142464,72.4985733,58.82,10010,6.57,79.75,-2.19,2.19,79.75,-2.19,2.19,0.0,-0.19,0.12,36.0,-36.25,-4.19,-26.19,-0.02,0.02,-0.23,-0.38,-0.38,9.79,-1.06,38.59,1004.95
37706,2909,70.42,26,1,0,1250500,0.06,23.1142464,72.4985733,58.82,10010,6.57,79.75,-2.19,2.19,79.75,-2.19,2.19,0.0,0.0,0.12,36.0,-37.38,-5.0,-27.38,-0.02,0.0,-0.22,-0.38,-0.38,9.79,-1.08,38.6,1004.95
37707,2909,70.42,26,1,0,1250500,0.06,23.1142464,72.4985733,58.82,10010,6.57,79.75,-2.19,2.19,79.75,-2.19,2.19,-0.12,-0.12,0.06,36.0,-37.0,-5.69,-27.38,0.0,0.04,-0.23,-0.38,-0.38,9.79,-1.05,38.6,1004.95
37708,2909,70.42,26,1,0,1250500,0.06,23.1142464,72.4985733,58.82,10010,6.55,79.75,-2.19,2.19,79.75,-2.19,2.19,-0.06,0.12,0.0,36.0,-35.88,-4.56,-27.0,-0.01,0.03,-0.23,-0.38,-0.38,9.79,-0.95,38.61,1004.93
37709,2909,70.42,26,1,0,1250500,0.06,23.1142464,72.4985733,58.82,10010,6.55,79.75,-2.19,2.19,79.75,-2.19,2.19,0.0,-0.19,0.12,36.0,-35.88,-4.56,-27.0,-0.02,0.0,-0.25,-0.38,-0.38,9.79,-0.98,38.61,1004.94
37710,2909,70.42,26,1,0,1250500,0.06,23.1142464,72.4985733,58.82,10010,6.55,79.75,-2.19,2.19,79.75,-2.19,2.19,0.0,0.06,0.0,36.0,-36.25,-3.75,-27.06,0.0,0.02,-0.18,-0.38,-0.38,9.79,-0.95,38.62,1004.93
37711,2909,70.42,26,1,0,1250500,0.06,23.1142464,72.4985733,58.82,10010,6.55,79.75,-2.19,2.19,79.75,-2.19,2.19,0.12,-0.12,0.0,36.0,-36.56,-5.0,-27.38,-0.02,0.0,-0.24,-0.38,-0.38,9.79,-1.05,38.62,1004.95
37712,2909,70.42,26,1,0,1250500,0.06,23.1142464,72.4985733,58.82,10010,6.57,79.75,-2.19,2.19,79.75,-2.19,2.19,0.0,0.12,0.06,36.0,-37.0,-5.0,-27.0,-0.02,0.02,-0.23,-0.38,-0.38,9.79,-1.14,38.62,1004.96
37713,2910,70.42,26,1,0,1250500,0.06,23.1142464,72.4985733,58.82,10010,6.55,79.75,-2.19,2.19,79.75,-2.19,2.19,0.06,0.12,0.06,36.0,-35.56,-4.19,-27.06,-0.02,0.0,-0.24,-0.38,-0.38,9.79,-1.09,38.6,1004.95
37714,2910,70.42,26,1,0,1250600,0.06,23.1142464,72.4985733,58.79,10010,6.53,79.75,-2.19,2.19,79.75,-2.19,2.19,-0.06,0.0,0.0,36.0,-36.25,-4.19,-26.25,-0.02,0.0,-0.21,-0.38,-0.38,9.79,-1.04,38.59,1004.94
37715,2910,70.42,26,1,0,1250600,0.06,23.1142464,72.4985733,58.79,10010,6.53,79.75,-2.19,2.19,79.75,-2.19,2.19,-0.12,0.06,0.0,36.0,-36.25,-4.19,-26.25,-0.02,0.02,-0.19,-0.38,-0.38,9.79,-1.02,38.59,1004.94
37716,2910,70.42,26,1,0,1250600,0.06,23.1142464,72.4985733,58.79,10010,6.53,79.75,-2.19,2.19,79.75,-2.19,2.19,0.06,0.06,0.0,36.0,-36.25,-4.19,-27.38,0.0,0.02,-0.21,-0.38,-0.38,9.79,-1.07,38.59,1004.95
37717,2910,70.42,26,1,0,1250600,0.06,23.1142464,72.4985733,58.79,10010,6.59,79.75,-2.19,2.19,79.75,-2.19,2.19,-0.06,0.12,-0.12,36.0,-36.69,-4.19,-27.06,-0.02,0.02,-0.22,-0.38,-0.38,9.79,-1.12,38.6,1004.95
37718,2910,70.42,26,1,0,1250600,0.06,23.1142464,72.4985733,58.79,10010,6.57,79.75,-2.19,2.19,79.75,-2.19,2.19,-0.06,0.06,-0.06,36.0,-36.69,-3.5,-26.56,-0.02,0.02,-0.22,-0.38,-0.38,9.79,-1.18,38.6,1004.96
37719,2910,70.42,26,1,0,1250600,0.06,23.1142464,72.4985733,58.79,10010,6.59,79.75,-2.19,2.19,79.75,-2.19,2.19,-0.06,-0.06,-0.06,36.0,-36.56,-4.19,-27.0,0.0,0.01,-0.26,-0.38,-0.38,9.79,-1.14,38.61,1004.96
37720,2910,70.42,26,1,0,1250600,0.06,23.1142464,72.4985733,58.79,10010,6.55,79.75,-2.19,2.19,79.75,-2.19,2.19,0.0,-0.06,0.0,36.0,-36.56,-4.19,-27.0,-0.03,0.02,-0.24,-0.38,-0.38,9.79,-1.15,38.61,1004.96
37721,2910,70.42,26,1,0,1250600,0.06,23.1142464,72.4985733,58.79,10010,6.57,79.75,-2.19,2.19,79.75,-2.19,2.19,0.06,0.0,0.06,36.0,-35.88,-5.0,-28.69,0.0,0.0,-0.2,-0.38,-0.38,9.79,-1.12,38.62,1004.95
37722,2910,70.42,26,1,0,1250600,0.06,23.1142464,72.4985733,58.79,10010,6.55,79.75,-2.19,2.19,79.75,-2.19,2.19,0.19,0.12,0.0,36.0,-36.69,-5.25,-27.06,-0.06,0.03,-0.21,-0.38,-0.38,9.79,-1.12,38.62,1004.95
37723,2910,70.42,26,1,0,1250600,0.06,23.1142464,72.4985733,58.79,10010,6.55,79.75,-2.19,2.19,79.75,-2.19,2.19,0.06,-0.06,0.0,36.0,-36.25,-4.56,-27.06,-0.02,0.0,-0.18,-0.38,-0.38,9.79,-1.07,38.62,1004.95
37724,2910,70.42,26,1,0,1250600,0.06,23.1142464,72.4985733,58.79,10010,6.55,79.75,-2.19,2.19,79.75,-2.19,2.19,-0.06,-0.19,0.12,36.0,-36.69,-4.56,-27.06,-0.01,0.02,-0.26,-0.38,-0.38,9.79,-1.05,38.63,1004.95
37725,2910,70.42,26,1,0,1250600,0.06,23.1142464,72.4985733,58.79,10010,6.55,79.75,-2.19,2.19,79.75,-2.19,2.19,0.19,-0.25,0.12,36.0,-36.69,-4.56,-27.06,-0.02,0.0,-0.25,-0.38,-0.38,9.79,-0.96,38.63,1004.93
37726,2911,70.42,26,1,0,1250600,0.06,23.1142464,72.4985733,58.79,10010,6.55,79.75,-2.06,2.19,79.75,-2.06,2.19,-4.88,-5.06,2.44,36.0,-36.25,-3.5,-26.19,-1.25,0.36,0.6,-0.36,-0.38,9.79,-1.12,38.61,1004.95
37727,2911,70.42,26,1,0,1250600,0.06,23.1142464,72.4985733,58.79,10010,6.55,79.75,-2.25,2.25,79.75,-2.25,2.25,-2.38,7.88,2.75,36.0,-36.25,-3.5,-26.19,0.31,0.39,-0.35,-0.39,-0.38,9.79,-1.14,38.6,1004.96
37728,2911,70.42,26,1,0,1250600,0.06,23.1142464,72.4985733,58.79,10010,6.55,79.75,-2.38,2.25,79.75,-2.38,2.25,1.5,-6.06,-3.0,36.0,-36.25,-4.56,-27.38,1.52,0.36,0.94,-0.39,-0.38,9.79,-1.25,38.59,1004.97
37729,2911,70.42,26,1,0,1250700,0.05,23.1142464,72.4985733,58.76,10010,6.57,79.81,-2.06,2.19,79.81,-2.06,2.19,5.56,1.38,-4.5,36.0,-36.25,-5.0,-27.38,-0.55,-0.24,1.13,-0.35,-0.36,9.79,-1.23,38.6,1004.97
37730,2911,70.42,26,1,0,1250700,0.05,23.1142464,72.4985733,58.76,10010,6.55,79.81,-2.25,2.19,79.81,-2.25,2.19,0.69,7.19,-0.31,36.0,-37.0,-3.75,-26.19,-0.64,-0.75,-3.65,-0.39,-0.37,9.79,-1.19,38.6,1004.96
37731,2911,70.42,26,1,0,1250700,0.05,23.1142464,72.4985733,58.76,10010,6.55,79.81,-2.25,2.12,79.81,-2.25,2.12,5.31,-3.69,-3.38,36.0,-37.0,-3.75,-26.19,-1.93,-0.72,0.95,-0.39,-0.36,9.79,-1.24,38.6,1004.97
37732,2911,70.42,26,1,0,1250700,0.05,23.1142464,72.4985733,58.76,10010,6.57,79.81,-2.25,2.19,79.81,-2.25,2.19,-6.12,3.81,0.81,36.0,-35.88,-3.75,-27.0,0.96,0.24,0.02,-0.38,-0.38,9.79,-1.17,38.61,1004.96
37733,2911,70.42,26,1,0,1250700,0.05,23.1142464,72.4985733,58.76,10010,6.57,79.75,-2.19,2.25,79.75,-2.19,2.25,0.5,-3.62,0.81,36.0,-37.0,-4.19,-27.06,0.31,1.03,-0.41,-0.37,-0.38,9.79,-1.19,38.62,1004.96
37734,2911,70.42,26,1,0,1250700,0.05,23.1142464,72.4985733,58.76,10010,6.55,79.75,-2.06,2.12,79.75,-2.06,2.12,2.06,2.69,1.0,36.0,-36.69,-3.75,-24.88,-0.7,-0.05,-1.08,-0.36,-0.36,9.79,-1.19,38.62,1004.96
37735,2911,70.42,26,1,0,1250700,0.05,23.1142464,72.4985733,58.76,10010,6.57,79.81,-2.38,2.19,79.81,-2.38,2.19,6.25,-0.81,5.0,36.0,-36.69,-3.75,-24.88,1.17,-0.71,-2.8,-0.4,-0.37,9.79,-1.21,38.63,1004.96
37736,2911,70.42,26,1,0,1250700,0.05,23.1142464,72.4985733,58.76,10010,6.55,79.81,-2.12,2.12,79.81,-2.12,2.12,-1.19,-5.44,-3.69,36.0,-36.25,-4.56,-27.0,-1.11,0.32,3.93,-0.36,-0.36,9.79,-1.2,38.63,1004.96
37737,2911,70.42,26,1,0,1250700,0.05,23.1142464,72.4985733,58.76,10010,6.55,79.69,-2.19,2.19,79.69,-2.19,2.19,-3.56,12.0,-4.06,36.0,-37.0,-5.0,-27.88,0.66,-0.94,-0.16,-0.39,-0.38,9.79,-1.17,38.63,1004.96
37738,2911,70.42,26,1,0,1250700,0.05,23.1142464,72.4985733,58.76,10010,6.57,79.62,-2.25,2.12,79.62,-2.25,2.12,-4.94,-8.62,-1.12,36.0,-36.69,-4.19,-27.06,-0.54,0.77,-0.66,-0.38,-0.37,9.79,-1.22,38.64,1004.97
37739,2912,70.42,26,1,0,1250700,0.05,23.1142464,72.4985733,58.76,10010,6.55,79.06,-2.38,2.0,79.06,-2.38,2.0,2.69,0.0,0.0,36.0,-37.06,-3.69,-25.38,-0.35,-0.7,-2.1,-0.41,-0.33,9.79,-1.32,38.62,1004.98
37740,2912,70.42,26,1,0,1250700,0.05,23.1142464,72.4985733,58.76,10010,6.55,79.19,-2.19,1.94,79.19,-2.19,1.94,-5.38,-4.38,5.94,36.0,-35.69,-3.69,-27.06,-0.71,0.18,-2.19,-0.37,-0.34,9.79,-1.24,38.6,1004.97
37741,2912,70.42,26,1,0,1250700,0.05,23.1142464,72.4985733,58.76,10010,6.57,78.94,-2.31,2.0,78.94,-2.31,2.0,5.88,6.25,4.69,36.0,-36.38,-3.38,-26.19,0.39,-1.15,-0.51,-0.39,-0.34,9.79,-1.16,38.6,1004.96
37742,2912,70.42,26,1,0,1250700,0.05,23.1142464,72.4985733,58.76,10010,6.53,78.81,-2.25,1.88,78.81,-2.25,1.88,-7.31,-9.5,1.69,36.0,-36.38,-3.38,-26.19,0.31,1.07,1.87,-0.39,-0.33,9.79,-1.23,38.6,1004.97
37743,2912,70.42,26,1,0,1250700,0.05,23.1142464,72.4985733,58.76,10010,6.53,78.81,-2.19,2.0,78.81,-2.19,2.0,0.06,4.44,6.12,36.0,-36.0,-4.06,-27.06,0.02,-0.34,-1.9,-0.38,-0.34,9.79,-1.37,38.61,1004.98
37744,2912,70.42,26,1,0,1250800,0.05,23.1142445,72.4985733,58.74,10010,6.53,78.75,-2.44,1.88,78.75,-2.44,1.88,7.06,-1.88,-0.5,36.0,-36.75,-3.38,-27.06,-0.76,-0.15,-1.54,-0.41,-0.31,9.79,-1.32,38.61,1004.98
37745,2912,70.42,26,1,0,1250800,0.05,23.1142445,72.4985733,58.74,10010,6.53,78.69,-2.19,1.88,78.69,-2.19,1.88,2.12,-5.19,-5.81,36.0,-36.75,-4.5,-26.56,0.04,-0.5,0.25,-0.37,-0.33,9.79,-1.42,38.62,1004.99
37746,2912,70.42,26,1,0,1250800,0.05,23.1142445,72.4985733,58.74,10010,6.53,78.62,-2.31,1.88,78.62,-2.31,1.88,5.19,5.56,4.88,36.0,-36.75,-4.5,-26.56,-0.04,0.49,-0.53,-0.39,-0.32,9.79,-1.38,38.62,1004.98
37747,2912,70.42,26,1,0,1250800,0.05,23.1142445,72.4985733,58.74,10010,6.55,78.56,-2.25,1.88,78.56,-2.25,1.88,-7.5,-6.19,1.31,36.0,-36.69,-3.0,-26.56,0.39,1.04,1.38,-0.39,-0.32,9.79,-1.36,38.63,1004.98
37748,2912,70.42,26,1,0,1250800,0.05,23.1142445,72.4985733,58.74,10010,6.53,78.62,-2.31,1.94,78.62,-2.31,1.94,1.38,5.19,-4.0,36.0,-36.25,-3.69,-26.56,0.55,-1.26,-1.56,-0.39,-0.34,9.79,-1.35,38.63,1004.98
37749,2912,70.42,26,1,0,1250800,0.05,23.1142445,72.4985733,58.74,10010,6.53,78.62,-2.31,1.75,78.62,-2.31,1.75,2.5,-5.62,-1.5,36.0,-36.25,-4.06,-26.56,-1.03,0.11,0.0,-0.4,-0.3,9.79,-1.32,38.64,1004.98
37750,2912,70.42,26,1,0,1250800,0.05,23.1142445,72.4985733,58.74,10010,6.52,78.56,-2.19,1.94,78.56,-2.19,1.94,-8.62,1.75,7.69,36.0,-35.88,-3.0,-25.75,0.38,0.84,1.17,-0.37,-0.34,9.79,-1.27,38.64,1004.97
37751,2912,70.42,26,1,0,1250800,0.05,23.1142445,72.4985733,58.74,10010,6.53,78.5,-2.38,1.88,78.5,-2.38,1.88,2.56,4.44,3.69,36.0,-35.88,-3.0,-25.75,0.07,-0.67,-1.8,-0.42,-0.31,9.79,-1.29,38.65,1004.97
37752,2913,70.42,26,1,0,1250800,0.05,23.1142445,72.4985733,58.74,10010,6.55,78.19,-2.38,1.81,78.19,-2.38,1.81,5.38,6.44,1.56,36.0,-37.0,-3.75,-26.19,0.5,0.7,-1.24,-0.4,-0.31,9.79,-1.42,38.63,1004.99
37753,2913,70.42,26,1,0,1250800,0.05,23.1142445,72.4985733,58.74,10010,6.55,78.19,-2.31,1.88,78.19,-2.31,1.88,-2.62,-1.75,-3.62,36.0,-35.88,-3.06,-25.75,0.07,0.01,0.54,-0.39,-0.32,9.79,-1.49,38.61,1005.0
37754,2913,70.42,26,1,0,1250800,0.05,23.1142445,72.4985733,58.74,10010,6.57,78.19,-2.25,1.81,78.19,-2.25,1.81,-0.38,0.5,-0.25,36.0,-36.25,-3.06,-25.75,-0.75,-1.95,0.75,-0.39,-0.31,9.79,-1.62,38.61,1005.01
37755,2913,70.42,26,1,0,1250800,0.05,23.1142445,72.4985733,58.74,10010,6.55,78.19,-2.31,1.81,78.19,-2.31,1.81,2.19,0.69,2.44,36.0,-37.38,-2.69,-26.56,0.01,0.81,-3.14,-0.39,-0.32,9.79,-1.66,38.61,1005.02
37756,2913,70.42,26,1,0,1250800,0.05,23.1142445,72.4985733,58.74,10010,6.53,78.25,-2.31,1.81,78.25,-2.31,1.81,4.25,0.12,-0.44,36.0,-37.38,-2.69,-26.56,0.12,1.68,-0.64,-0.39,-0.31,9.79,-1.75,38.62,1005.03
37757,2913,70.42,26,1,0,1250800,0.05,23.1142445,72.4985733,58.74,10010,6.57,78.19,-2.31,1.81,78.19,-2.31,1.81,-1.88,0.94,-5.0,36.0,-37.0,-2.25,-26.19,0.48,-0.95,2.62,-0.39,-0.31,9.79,-1.84,38.62,1005.04
37758,2913,70.42,26,1,0,1250800,0.05,23.1142445,72.4985733,58.74,10010,6.57,78.19,-2.25,1.81,78.19,-2.25,1.81,-3.25,-2.0,0.12,36.0,-36.69,-3.75,-26.19,-0.36,-1.32,0.25,-0.39,-0.31,9.79,-1.93,38.63,1005.05
37759,2913,70.42,26,1,0,1250800,0.05,23.1142445,72.4985733,58.74,10010,6.55,78.19,-2.25,1.75,78.19,-2.25,1.75,3.12,0.88,5.56,36.0,-37.0,-3.5,-25.38,-0.35,1.72,-3.66,-0.39,-0.3,9.79,-2.06,38.64,1005.07
37760,2913,70.42,26,1,0,1250900,0.05,23.1142464,72.4985809,58.72,10010,6.55,78.25,-2.31,1.88,78.25,-2.31,1.88,0.0,-0.06,0.0,36.0,-36.69,-2.69,-27.5,0.72,0.54,-0.03,-0.4,-0.32,9.79,-2.07,38.64,1005.07
37761,2913,70.42,26,1,0,1250900,0.05,23.1142464,72.4985809,58.72,10010,6.55,78.19,-2.25,1.75,78.19,-2.25,1.75,1.25,-0.69,-6.69,36.0,-36.69,-2.69,-27.5,-0.55,-2.03,2.69,-0.39,-0.3,9.79,-1.99,38.64,1005.06
37762,2913,70.42,26,1,0,1250900,0.05,23.1142464,72.4985809,58.72,10010,6.55,78.12,-2.25,1.75,78.12,-2.25,1.75,-1.12,2.38,0.12,36.0,-36.69,-3.5,-26.19,-0.33,0.06,-1.4,-0.39,-0.3,9.79,-1.99,38.65,1005.06
37763,2913,70.42,26,1,0,1250900,0.05,23.1142464,72.4985809,58.72,10010,6.57,78.25,-2.25,1.81,78.25,-2.25,1.81,1.88,-1.62,5.44,36.0,-36.69,-2.25,-25.75,-0.28,1.26,-2.48,-0.39,-0.3,9.79,-2.02,38.65,1005.06
37764,2913,70.42,26,1,0,1250900,0.05,23.1142464,72.4985809,58.72,10010,6.55,78.25,-2.31,1.88,78.25,-2.31,1.88,-3.0,1.12,-5.0,36.0,-36.25,-2.69,-26.56,0.34,-1.09,2.22,-0.39,-0.32,9.79,-2.06,38.65,1005.07
37765,2914,70.42,26,1,0,1250900,0.05,23.1142464,72.4985809,58.72,10010,6.55,78.19,-2.31,1.88,78.19,-2.31,1.88,4.5,-0.81,-4.5,36.0,-37.38,-3.5,-26.56,-0.11,-0.44,-0.34,-0.4,-0.32,9.79,-2.43,38.63,1005.11
37766,2914,70.42,26,1,0,1250900,0.05,23.1142464,72.4985809,58.72,10010,6.55,78.12,-2.25,1.81,78.12,-2.25,1.81,3.12,-2.75,-3.56,36.0,-37.38,-4.19,-26.56,-1.9,-0.8,-0.16,-0.38,-0.31,9.79,-2.82,38.62,1005.16
37767,2914,70.42,26,1,0,1250900,0.05,23.1142464,72.4985809,58.72,10010,6.55,78.06,-2.25,1.81,78.06,-2.25,1.81,-4.38,3.0,9.38,36.0,-37.38,-4.19,-26.56,2.76,0.23,-1.04,-0.39,-0.31,9.79,-3.21,38.62,1005.2
37768,2914,70.42,26,1,0,1250900,0.05,23.1142464,72.4985809,58.72,10010,6.57,77.94,-2.31,1.88,77.94,-2.31,1.88,-4.69,0.12,1.44,36.0,-36.69,-5.0,-25.75,-0.65,0.8,2.33,-0.4,-0.33,9.79,-3.6,38.62,1005.25
37769,2914,70.42,26,1,0,1250900,0.05,23.1142464,72.4985809,58.72,10010,6.55,77.88,-2.31,1.94,77.88,-2.31,1.94,3.44,-2.38,1.12,36.0,-37.75,-3.75,-25.75,-0.93,-0.29,-3.15,-0.39,-0.33,9.79,-4.08,38.62,1005.31
37770,2914,70.42,26,1,0,1250900,0.05,23.1142464,72.4985809,58.72,10010,6.55,77.75,-2.25,1.94,77.75,-2.25,1.94,3.06,-4.75,5.25,36.0,-37.0,-4.19,-24.06,0.84,0.16,-2.81,-0.38,-0.33,9.79,-4.33,38.63,1005.34
37771,2914,70.42,26,1,0,1250900,0.05,23.1142464,72.4985809,58.72,10010,6.55,77.62,-2.25,1.94,77.62,-2.25,1.94,-5.12,3.94,3.88,36.0,-37.0,-4.19,-24.06,1.1,0.76,4.56,-0.39,-0.33,9.79,-4.72,38.63,1005.38
37772,2914,70.42,26,1,0,1250900,0.05,23.1142464,72.4985809,58.72,10010,6.55,77.62,-2.25,1.88,77.62,-2.25,1.88,6.44,-4.94,-3.56,36.0,-37.0,-2.69,-23.69,-0.48,-1.25,-3.5,-0.38,-0.32,9.79,-5.22,38.64,1005.44
37773,2914,70.42,26,1,0,1250900,0.05,23.1142464,72.4985809,58.72,10010,6.55,77.62,-2.06,1.88,77.62,-2.06,1.88,-6.0,-7.19,6.69,36.0,-37.75,-4.5,-25.38,0.39,2.1,6.04,-0.34,-0.33,9.79,-5.56,38.65,1005.48
37774,2914,70.42,26,1,0,1250900,0.05,23.1142464,72.4985809,58.72,10010,6.55,77.56,-1.88,2.0,77.56,-1.88,2.0,1.19,-0.62,-0.19,36.0,-38.06,-3.75,-24.06,0.09,-2.42,-1.02,-0.32,-0.34,9.79,-5.7,38.65,1005.5
37775,2914,70.42,26,1,0,1251000,0.09,23.1142464,72.4985809,58.7,10010,6.53,77.5,-1.81,2.12,77.5,-1.81,2.12,-2.62,-2.12,5.5,36.0,-38.06,-3.75,-24.06,-0.94,1.66,2.28,-0.32,-0.36,9.79,-5.94,38.65,1005.53
37776,2914,70.42,26,1,0,1251000,0.09,23.1142464,72.4985809,58.7,10010,6.55,77.5,-1.81,2.19,77.5,-1.81,2.19,-1.69,-1.75,-2.06,36.0,-36.69,-3.5,-24.88,1.51,-0.73,-0.14,-0.3,-0.38,9.79,-6.16,38.66,1005.55
37777,2914,70.42,26,1,0,1251000,0.09,23.1142464,72.4985809,58.7,10010,6.55,77.5,-1.62,2.25,77.5,-1.62,2.25,-1.12,-3.94,-0.5,36.0,-37.38,-3.5,-24.06,-0.13,0.67,1.13,-0.28,-0.38,9.79,-6.18,38.66,1005.56
37778,2915,70.42,26,1,0,1251000,0.09,23.1142464,72.4985809,58.7,10010,6.52,77.38,-1.44,2.12,77.38,-1.44,2.12,-1.44,0.12,0.5,36.0,-37.06,-2.0,-22.19,-0.51,0.28,0.12,-0.25,-0.36,9.79,-5.97,38.64,1005.53
37779,2915,70.42,26,1,0,1251000,0.09,23.1142464,72.4985809,58.7,10010,6.59,77.38,-1.38,2.06,77.38,-1.38,2.06,2.88,-4.25,0.0,36.0,-36.06,-3.56,-22.19,0.71,-0.54,-0.61,-0.23,-0.35,9.79,-5.61,38.63,1005.49
37780,2915,70.42,26,1,0,1251000,0.09,23.1142464,72.4985809,58.7,10010,6.59,77.38,-1.19,1.94,77.38,-1.19,1.94,2.75,-3.19,-0.56,36.0,-37.5,-3.19,-21.75,-0.79,0.04,0.06,-0.2,-0.33,9.79,-5.27,38.63,1005.45
37781,2915,70.42,26,1,0,1251000,0.09,23.1142464,72.4985809,58.7,10010,6.59,77.31,-1.12,1.81,77.31,-1.12,1.81,3.94,-0.31,2.0,36.0,-36.38,-3.88,-22.06,-0.57,-0.22,0.41,-0.2,-0.31,9.79,-4.9,38.63,1005.41
37782,2915,70.42,26,1,0,1251000,0.09,23.1142464,72.4985809,58.7,10010,6.55,77.38,-1.19,1.75,77.38,-1.19,1.75,1.31,-0.06,-2.5,36.0,-36.38,-3.88,-22.06,0.54,-1.04,-0.56,-0.2,-0.29,9.79,-4.7,38.63,1005.38
37783,2915,70.42,26,1,0,1251000,0.09,23.1142464,72.4985809,58.7,10010,6.57,77.31,-1.06,1.75,77.31,-1.06,1.75,-2.38,-2.81,0.94,36.0,-36.75,-3.5,-21.25,-0.08,1.19,1.24,-0.18,-0.3,9.8,-4.5,38.64,1005.36
37784,2915,70.42,26,1,0,1251000,0.09,23.1142464,72.4985809,58.7,10010,6.57,77.31,-1.0,1.81,77.31,-1.0,1.81,2.38,-1.44,1.88,36.0,-36.19,-4.0,-22.06,-0.3,0.74,-1.2,-0.17,-0.3,9.8,-4.38,38.64,1005.34
37785,2915,70.42,26,1,0,1251000,0.09,23.1142464,72.4985809,58.7,10010,6.57,77.31,-0.94,1.69,77.31,-0.94,1.69,3.19,-0.25,0.75,36.0,-36.88,-3.19,-20.88,-0.39,0.23,0.08,-0.16,-0.29,9.8,-4.35,38.65,1005.34
37786,2915,70.42,26,1,0,1251000,0.09,23.1142464,72.4985809,58.7,10010,6.55,77.31,-0.88,1.5,77.31,-0.88,1.5,8.44,-2.19,-3.88,36.0,-36.88,-3.19,-20.88,0.81,-0.61,-1.57,-0.15,-0.25,9.8,-4.19,38.65,1005.32
37787,2915,70.42,26,1,0,1251000,0.09,23.1142464,72.4985809,58.7,10010,6.55,77.31,-0.69,1.19,77.31,-0.69,1.19,7.69,-4.62,1.81,36.0,-35.75,-3.25,-21.25,-0.9,0.64,0.98,-0.12,-0.2,9.8,-4.07,38.66,1005.31
37788,2915,70.42,26,1,0,1251000,0.09,23.1142464,72.4985809,58.7,10010,6.55,77.31,-0.75,1.0,77.31,-0.75,1.0,4.0,3.81,0.69,36.0,-37.0,-4.38,-21.19,-0.75,-0.87,-1.57,-0.12,-0.17,9.8,-4.04,38.66,1005.3
37789,2915,70.42,26,1,0,1251000,0.09,23.1142464,72.4985809,58.7,10010,6.55,77.31,-0.88,1.0,77.31,-0.88,1.0,-1.56,2.06,-2.94,36.0,-35.5,-3.56,-20.5,-0.74,0.76,1.68,-0.15,-0.17,9.8,-4.07,38.66,1005.31
37790,2915,70.42,26,1,0,1251100,0.29,23.1142464,72.4985809,58.7,10010,6.55,77.31,-0.88,1.0,77.31,-0.88,1.0,0.56,0.06,2.75,36.0,-36.25,-4.88,-21.06,0.83,0.69,-1.1,-0.15,-0.17,9.8,-3.9,38.67,1005.29
37791,2916,70.42,26,1,0,1251100,0.29,23.1142464,72.4985809,58.7,10010,6.53,77.31,-1.44,0.75,77.31,-1.44,0.75,-5.94,3.38,2.94,36.0,-36.56,-4.19,-21.88,1.48,0.93,1.07,-0.26,-0.13,9.8,-3.47,38.65,1005.23
37792,2916,70.42,26,1,0,1251100,0.29,23.1142464,72.4985809,58.7,10010,6.55,77.31,-1.44,0.88,77.31,-1.44,0.88,2.62,-2.69,-2.25,36.0,-36.56,-4.19,-21.88,0.85,-0.38,-2.1,-0.25,-0.15,9.8,-2.99,38.64,1005.18
37793,2916,70.42,26,1,0,1251100,0.29,23.1142464,72.4985809,58.7,10010,6.57,77.25,-1.44,0.75,77.25,-1.44,0.75,5.31,3.5,0.62,36.0,-36.56,-4.56,-21.25,-1.62,1.68,2.99,-0.25,-0.12,9.8,-2.34,38.63,1005.1
37794,2916,70.42,26,1,0,1251100,0.29,23.1142464,72.4985809,58.7,10010,6.57,77.25,-1.56,0.44,77.25,-1.56,0.44,10.5,-1.12,0.69,36.0,-36.25,-5.69,-21.75,0.39,-1.41,-0.32,-0.27,-0.05,9.8,-1.95,38.64,1005.05
37795,2916,70.42,26,1,0,1251100,0.29,23.1142464,72.4985809,58.7,10010,6.57,77.31,-1.44,0.06,77.31,-1.44,0.06,7.56,-6.12,-2.88,36.0,-36.25,-4.19,-21.75,0.25,0.27,2.85,-0.24,0.0,9.8,-1.59,38.64,1005.01
37796,2916,70.42,26,1,0,1251100,0.29,23.1142464,72.4985809,58.7,10010,6.53,77.31,-1.31,0.0,77.31,-1.31,0.0,1.69,-2.88,2.81,36.0,-36.25,-4.19,-21.75,-0.51,-2.18,-2.06,-0.22,0.0,9.8,-1.21,38.64,1004.96
37797,2916,70.42,26,1,0,1251100,0.29,23.1142464,72.4985809,58.7,10010,6.55,77.31,-1.25,0.0,77.31,-1.25,0.0,-5.75,-0.31,-3.06,36.0,-35.88,-4.56,-21.25,0.13,-0.93,0.26,-0.22,-0.02,9.8,-1.07,38.65,1004.95
37798,2916,70.42,26,1,0,1251100,0.29,23.1142464,72.4985809,58.7,10010,6.57,77.31,-1.19,0.25,77.31,-1.19,0.25,-5.81,-5.19,0.25,36.0,-35.88,-5.25,-20.88,-0.07,1.48,1.75,-0.2,-0.05,9.8,-1.01,38.65,1004.94
37799,2916,70.42,26,1,0,1251100,0.29,23.1142464,72.4985809,58.7,10010,6.55,77.38,-1.0,0.38,77.38,-1.0,0.38,1.75,-4.75,0.81,36.0,-36.56,-4.56,-21.25,0.71,-1.53,-2.59,-0.16,-0.06,9.8,-0.84,38.66,1004.92
37800,2916,70.42,26,1,0,1251100,0.29,23.1142464,72.4985809,58.7,10010,6.55,77.31,-0.81,0.38,77.31,-0.81,0.38,0.69,-4.81,2.62,36.0,-36.56,-4.56,-21.25,-0.87,0.49,1.06,-0.14,-0.06,9.8,-0.69,38.66,1004.9
37801,2916,70.42,26,1,0,1251100,0.29,23.1142464,72.4985809,58.7,10010,6.55,77.31,-0.69,0.31,77.31,-0.69,0.31,4.06,-2.38,-0.62,36.0,-36.56,-5.69,-20.5,-0.79,-0.63,-0.09,-0.11,-0.05,9.8,-0.44,38.67,1004.87
37802,2916,70.42,26,1,0,1251100,0.29,23.1142464,72.4985809,58.7,10010,6.57,77.31,-0.56,0.31,77.31,-0.56,0.31,0.94,-2.38,1.31,36.0,-37.0,-4.19,-20.06,0.65,-1.47,-0.36,-0.09,-0.05,9.8,-0.35,38.67,1004.86
37803,2916,70.42,26,1,0,1251100,0.29,23.1142464,72.4985809,58.7,10010,6.53,77.31,-0.44,0.31,77.31,-0.44,0.31,-1.75,-1.5,-1.75,36.0,-36.69,-4.25,-20.5,-0.66,1.27,3.41,-0.08,-0.06,9.8,-0.19,38.67,1004.84
37804,2917,70.42,26,1,0,1251200,0.26,23.1142464,72.4985809,58.74,10010,6.55,76.88,0.12,0.88,76.88,0.12,0.88,0.62,0.69,-0.81,36.0,-37.38,-5.19,-20.56,-0.79,0.5,1.93,0.02,-0.15,9.8,0.28,38.65,1004.79
37805,2917,70.42,26,1,0,1251200,0.26,23.1142464,72.4985809,58.74,10010,6.53,76.81,0.06,0.88,76.81,0.06,0.88,-1.75,0.44,0.69,36.0,-36.19,-5.0,-19.56,-0.6,0.25,1.75,0.01,-0.15,9.8,0.38,38.64,1004.78
37806,2917,70.42,26,1,0,1251200,0.26,23.1142464,72.4985809,58.74,10010,6.53,76.81,0.0,0.94,76.81,0.0,0.94,-1.81,1.44,1.38,36.0,-36.19,-3.38,-20.0,-0.71,0.1,1.48,0.0,-0.17,9.8,0.59,38.64,1004.75
37807,2917,70.42,26,1,0,1251200,0.26,23.1142464,72.4985809,58.74,10010,6.53,76.81,0.0,1.12,76.81,0.0,1.12,-3.94,2.38,0.5,36.0,-36.19,-3.38,-20.0,0.36,-0.36,0.35,0.0,-0.19,9.8,0.71,38.64,1004.74
37808,2917,70.42,26,1,0,1251200,0.26,23.1142464,72.4985809,58.74,10010,6.53,76.81,-0.06,1.25,76.81,-0.06,1.25,-4.31,1.94,-1.44,36.0,-37.0,-3.69,-20.75,-0.26,-0.04,1.09,-0.01,-0.22,9.8,0.93,38.64,1004.71
37809,2917,70.42,26,1,0,1251200,0.26,23.1142464,72.4985809,58.74,10010,6.55,76.81,-0.12,1.44,76.81,-0.12,1.44,-3.5,1.88,0.44,36.0,-36.56,-3.38,-19.25,-0.64,0.4,0.71,-0.03,-0.24,9.8,1.15,38.65,1004.68
37810,2917,70.42,26,1,0,1251200,0.26,23.1142464,72.4985809,58.74,10010,6.53,76.75,-0.19,1.5,76.75,-0.19,1.5,-2.19,2.56,2.5,36.0,-35.88,-2.88,-20.06,0.29,0.22,0.46,-0.04,-0.26,9.8,1.22,38.65,1004.67
37811,2917,70.42,26,1,0,1251200,0.26,23.1142464,72.4985809,58.74,10010,6.55,76.75,-0.31,1.56,76.75,-0.31,1.56,-0.38,3.31,-0.25,36.0,-35.88,-2.88,-20.06,-0.02,-0.27,0.77,-0.06,-0.27,9.8,1.35,38.66,1004.66
37812,2917,70.42,26,1,0,1251200,0.26,23.1142464,72.4985809,58.74,10010,6.53,76.69,-0.44,1.56,76.69,-0.44,1.56,-0.19,2.81,-0.5,36.0,-36.56,-2.88,-18.88,-0.73,0.5,0.88,-0.08,-0.27,9.8,1.44,38.66,1004.65
37813,2917,70.42,26,1,0,1251200,0.26,23.1142464,72.4985809,58.74,10010,6.53,76.69,-0.56,1.56,76.69,-0.56,1.56,0.38,3.19,1.38,36.0,-36.56,-3.5,-20.56,0.38,0.03,0.26,-0.1,-0.27,9.8,1.51,38.67,1004.64
37814,2917,70.42,26,1,0,1251200,0.26,23.1142464,72.4985809,58.74,10010,6.53,76.69,-0.69,1.56,76.69,-0.69,1.56,0.38,2.5,1.25,36.0,-36.56,-3.19,-21.0,0.49,-0.3,0.5,-0.12,-0.27,9.8,1.55,38.67,1004.63
37815,2917,70.42,26,1,0,1251200,0.26,23.1142464,72.4985809,58.74,10010,6.53,76.69,-0.75,1.56,76.69,-0.75,1.56,-0.75,1.88,0.88,36.0,-36.56,-2.75,-20.19,0.28,0.0,0.21,-0.13,-0.27,9.8,1.71,38.67,1004.62
37816,2917,70.42,26,1,0,1251200,0.26,23.1142464,72.4985809,58.74,10010,6.53,76.62,-0.81,1.56,76.62,-0.81,1.56,-0.62,1.75,1.81,36.0,-36.56,-2.75,-20.19,0.62,0.04,0.44,-0.14,-0.27,9.8,1.86,38.68,1004.6
37817,2918,70.42,26,1,0,1251300,0.46,23.1142502,72.4985809,58.93,10010,6.57,76.44,-1.31,0.94,76.44,-1.31,0.94,3.69,1.19,1.44,36.0,-36.5,-3.5,-22.25,0.95,-1.69,-1.4,-0.23,-0.15,9.8,2.08,38.66,1004.57
37818,2918,70.42,26,1,0,1251300,0.46,23.1142502,72.4985809,58.93,10010,6.57,76.38,-1.31,0.88,76.38,-1.31,0.88,-2.38,0.25,-3.31,36.0,-37.19,-3.5,-21.5,-1.39,1.18,1.61,-0.23,-0.16,9.8,2.29,38.65,1004.55
37819,2918,70.42,26,1,0,1251300,0.46,23.1142502,72.4985809,58.93,10010,6.5,76.38,-1.38,0.88,76.38,-1.38,0.88,0.62,0.38,4.56,36.0,-36.75,-2.38,-22.25,0.72,-0.51,-1.87,-0.23,-0.15,9.8,2.54,38.64,1004.52
37820,2918,70.42,26,1,0,1251300,0.46,23.1142502,72.4985809,58.93,10010,6.53,76.38,-1.38,0.88,76.38,-1.38,0.88,2.88,0.69,-0.31,36.0,-36.88,-3.88,-21.0,0.39,-0.51,0.35,-0.23,-0.15,9.8,2.72,38.65,1004.5
37821,2918,70.42,26,1,0,1251300,0.46,23.1142502,72.4985809,58.93,10010,6.55,76.31,-1.38,0.81,76.31,-1.38,0.81,3.69,0.69,3.81,36.0,-36.88,-3.88,-21.0,0.96,-1.42,-2.71,-0.23,-0.14,9.8,2.91,38.65,1004.47
37822,2918,70.42,26,1,0,1251300,0.46,23.1142502,72.4985809,58.93,10010,6.55,76.31,-1.38,0.75,76.31,-1.38,0.75,0.88,-0.12,-2.44,36.0,-36.5,-3.19,-21.0,-0.28,0.16,1.42,-0.23,-0.13,9.8,3.01,38.66,1004.46
37823,2918,70.42,26,1,0,1251300,0.46,23.1142502,72.4985809,58.93,10010,6.55,76.25,-1.38,0.75,76.25,-1.38,0.75,-1.12,-1.0,0.88,36.0,-36.5,-3.56,-23.56,-0.66,0.78,1.79,-0.23,-0.13,9.8,3.29,38.66,1004.43
37824,2918,70.42,26,1,0,1251300,0.46,23.1142502,72.4985809,58.93,10010,6.55,76.19,-1.12,0.69,76.19,-1.12,0.69,0.31,0.25,-0.25,36.0,-36.06,-2.75,-22.19,0.88,-1.42,-1.29,-0.19,-0.12,9.8,3.58,38.65,1004.39
37825,2919,70.42,26,1,0,1251400,0.44,23.1142521,72.4985809,59.23,10010,6.57,75.94,-0.5,1.06,75.94,-0.5,1.06,-0.69,-1.25,3.44,36.0,-36.88,-2.0,-21.25,0.04,0.37,-0.86,-0.09,-0.18,9.8,4.31,38.63,1004.31
37826,2919,70.42,26,1,0,1251400,0.44,23.1142521,72.4985809,59.23,10010,6.57,75.88,-0.5,1.06,75.88,-0.5,1.06,-0.81,-1.44,3.31,36.0,-36.56,-2.0,-21.0,0.06,0.08,-1.46,-0.08,-0.18,9.8,4.54,38.63,1004.28
37827,2919,70.42,26,1,0,1251400,0.44,23.1142521,72.4985809,59.23,10010,6.57,75.81,-0.44,1.12,75.81,-0.44,1.12,1.56,-0.75,0.25,36.0,-36.56,-3.19,-21.0,0.04,-0.94,0.18,-0.07,-0.19,9.8,4.71,38.63,1004.26
37828,2919,70.42,26,1,0,1251400,0.44,23.1142521,72.4985809,59.23,10010,6.55,75.81,-0.38,1.12,75.81,-0.38,1.12,0.88,-0.94,3.94,36.0,-36.88,-1.25,-20.06,0.31,-0.6,-2.28,-0.07,-0.19,9.8,4.84,38.64,1004.24
37829,2919,70.42,26,1,0,1251400,0.44,23.1142521,72.4985809,59.23,10010,6.55,75.81,-0.38,1.12,75.81,-0.38,1.12,-0.94,-0.12,-2.19,36.0,-36.88,-1.25,-20.06,-0.35,0.04,1.33,-0.06,-0.2,9.8,4.98,38.65,1004.23
37830,2919,70.42,26,1,0,1251400,0.44,23.1142521,72.4985809,59.23,10010,6.55,75.75,-0.38,1.19,75.75,-0.38,1.19,-3.56,-1.31,2.25,36.0,-36.25,-2.38,-21.38,-0.37,0.72,0.3,-0.06,-0.21,9.8,5.13,38.66,1004.21
37831,2919,70.42,26,1,0,1251400,0.44,23.1142521,72.4985809,59.23,10010,6.57,75.69,-0.38,1.25,75.69,-0.38,1.25,2.06,0.19,2.56,36.0,-37.25,-1.69,-21.38,0.75,-1.83,-2.26,-0.06,-0.21,9.8,5.32,38.66,1004.19
37832,2919,70.42,26,1,0,1251400,0.44,23.1142521,72.4985809,59.23,10010,6.55,75.62,-0.31,1.25,75.62,-0.31,1.25,-2.19,0.12,-3.12,36.0,-36.88,-2.75,-20.19,-0.89,1.8,2.49,-0.06,-0.22,9.8,5.49,38.67,1004.17
37833,2919,70.42,26,1,0,1251400,0.44,23.1142521,72.4985809,59.23,10010,6.55,75.69,-0.31,1.25,75.69,-0.31,1.25,2.31,0.81,-1.38,36.0,-36.88,-2.75,-20.19,0.67,-1.38,-1.02,-0.06,-0.22,9.8,5.43,38.68,1004.17
37834,2919,70.42,26,1,0,1251400,0.44,23.1142521,72.4985809,59.23,10010,6.55,75.62,-0.31,1.25,75.62,-0.31,1.25,-2.38,-0.88,-1.12,36.0,-36.56,-2.0,-20.56,-0.64,1.71,2.08,-0.05,-0.22,9.8,5.54,38.68,1004.16
37835,2919,70.42,26,1,0,1251400,0.44,23.1142521,72.4985809,59.23,10010,6.55,75.62,-0.31,1.19,75.62,-0.31,1.19,2.56,-0.75,3.62,36.0,-36.88,-2.0,-20.19,-0.04,-1.01,-2.96,-0.05,-0.21,9.8,5.57,38.69,1004.16
37836,2920,70.42,26,1,0,1251500,0.56,23.114254,72.4985886,59.57,10010,6.59,75.25,-0.38,0.81,75.25,-0.38,0.81,3.75,-0.12,-0.19,36.0,-37.38,-1.56,-21.0,0.03,-1.15,-0.91,-0.07,-0.13,9.8,6.01,38.67,1004.1
37837,2920,70.42,26,1,0,1251500,0.56,23.114254,72.4985886,59.57,10010,6.55,75.19,-0.38,0.75,75.19,-0.38,0.75,-0.62,0.44,2.31,36.0,-36.25,-1.88,-21.38,0.62,1.49,0.99,-0.06,-0.13,9.8,6.29,38.66,1004.07
37838,2920,70.42,26,1,0,1251500,0.56,23.114254,72.4985886,59.57,10010,6.55,75.12,-0.38,0.69,75.12,-0.38,0.69,0.5,-0.88,2.5,36.0,-36.25,-1.19,-21.0,-1.08,-1.32,-1.53,-0.06,-0.12,9.8,6.6,38.65,1004.03
37839,2920,70.42,26,1,0,1251500,0.56,23.114254,72.4985886,59.57,10010,6.55,75.06,-0.38,0.69,75.06,-0.38,0.69,-1.75,0.38,3.19,36.0,-36.25,-1.19,-21.0,0.3,0.82,0.58,-0.07,-0.12,9.8,6.82,38.66,1004.01
37840,2920,70.42,26,1,0,1251500,0.56,23.114254,72.4985886,59.57,10010,6.55,75.06,-0.38,0.62,75.06,-0.38,0.62,2.19,-0.38,0.88,36.0,-36.25,-1.88,-20.56,-0.9,-1.48,-1.51,-0.07,-0.12,9.8,7.02,38.66,1003.98
37841,2920,70.42,26,1,0,1251500,0.56,23.114254,72.4985886,59.57,10010,6.57,75.0,-0.44,0.62,75.0,-0.44,0.62,1.19,1.56,0.06,36.0,-36.25,-1.88,-20.56,-0.47,0.05,-0.02,-0.07,-0.11,9.8,7.16,38.67,1003.97
37842,2920,70.42,26,1,0,1251500,0.56,23.114254,72.4985886,59.57,10010,6.55,74.94,-0.44,0.62,74.94,-0.44,0.62,2.25,1.44,-1.44,36.0,-37.0,-2.25,-20.19,-0.37,-0.96,-0.91,-0.08,-0.1,9.8,7.32,38.67,1003.95
37843,2920,70.42,26,1,0,1251500,0.56,23.114254,72.4985886,59.57,10010,6.57,74.88,-0.5,0.56,74.88,-0.5,0.56,3.38,0.25,-0.19,36.0,-36.56,-1.19,-20.56,-0.26,-0.74,-0.63,-0.08,-0.09,9.8,7.47,38.68,1003.93
37844,2920,70.42,26,1,0,1251500,0.56,23.114254,72.4985886,59.57,10010,6.55,74.81,-0.5,0.5,74.81,-0.5,0.5,0.94,1.06,2.0,36.0,-36.56,-1.19,-20.56,0.92,0.91,0.52,-0.09,-0.09,9.8,7.47,38.68,1003.93
37845,2920,70.42,26,1,0,1251500,0.56,23.114254,72.4985886,59.57,10010,6.55,74.69,-0.5,0.44,74.69,-0.5,0.44,0.44,-0.12,4.94,36.0,-37.0,-1.19,-21.0,0.6,0.66,0.44,-0.09,-0.07,9.8,7.66,38.69,1003.91
37846,2920,70.42,26,1,0,1251500,0.56,23.114254,72.4985886,59.57,10010,6.55,74.56,-0.5,0.38,74.56,-0.5,0.38,3.44,0.56,0.81,36.0,-36.69,-0.5,-21.38,-1.21,-1.48,-1.17,-0.09,-0.06,9.8,7.83,38.69,1003.89
37847,2920,70.42,26,1,0,1251500,0.56,23.114254,72.4985886,59.57,10010,6.55,74.44,-0.56,0.31,74.44,-0.56,0.31,-0.44,1.44,3.56,36.0,-37.38,-1.88,-21.88,0.63,0.81,0.11,-0.1,-0.05,9.8,7.95,38.7,1003.87
37848,2920,70.42,26,1,0,1251500,0.56,23.114254,72.4985886,59.57,10010,6.55,74.38,-0.56,0.31,74.38,-0.56,0.31,0.44,0.31,2.94,36.0,-36.25,-1.56,-20.56,-0.21,0.21,0.28,-0.1,-0.05,9.8,8.04,38.7,1003.86
37849,2921,70.42,26,1,0,1251600,0.41,23.1142559,72.4985809,60.02,10010,6.57,74.12,-0.69,0.0,74.12,-0.69,0.0,-0.25,-0.81,0.5,36.0,-36.88,-0.75,-21.88,-0.55,0.38,-0.72,-0.12,0.0,9.8,8.45,38.68,1003.81
37850,2921,70.42,26,1,0,1251600,0.41,23.1142559,72.4985809,60.02,10010,6.57,74.12,-0.69,0.0,74.12,-0.69,0.0,1.44,0.12,0.44,36.0,-36.88,-0.75,-21.88,0.44,-1.31,-0.64,-0.12,0.0,9.8,8.64,38.67,1003.79
37851,2921,70.42,26,1,0,1251600,0.41,23.1142559,72.4985809,60.02,10010,6.5,74.06,-0.69,0.0,74.06,-0.69,0.0,-0.81,0.06,0.38,36.0,-35.75,-2.25,-21.38,0.08,0.69,1.34,-0.12,0.0,9.8,8.8,38.66,1003.77
37852,2921,70.42,26,1,0,1251600,0.41,23.1142559,72.4985809,60.02,10010,6.53,74.06,-0.69,0.0,74.06,-0.69,0.0,0.25,-1.31,2.19,36.0,-36.56,-1.5,-21.06,-0.78,0.01,-1.67,-0.11,0.0,9.8,8.96,38.66,1003.75
37853,2921,70.42,26,1,0,1251600,0.41,23.1142559,72.4985809,60.02,10010,6.57,74.0,-0.69,0.0,74.0,-0.69,0.0,-1.12,-0.5,2.0,36.0,-36.88,-1.06,-21.06,-0.12,0.75,0.81,-0.12,0.01,9.8,9.12,38.67,1003.73
37854,2921,70.42,26,1,0,1251600,0.41,23.1142559,72.4985809,60.02,10010,6.53,73.94,-0.69,-0.06,73.94,-0.69,-0.06,2.31,-0.75,1.62,36.0,-36.88,-1.06,-21.06,-0.38,-0.9,-2.1,-0.11,0.01,9.8,9.33,38.67,1003.71
37855,2921,70.42,26,1,0,1251600,0.41,23.1142559,72.4985809,60.02,10010,6.55,73.88,-0.62,-0.06,73.88,-0.62,-0.06,0.62,1.0,2.0,36.0,-35.75,-1.19,-20.69,0.65,0.39,1.57,-0.11,0.02,9.8,9.47,38.68,1003.69
37856,2921,70.42,26,1,0,1251600,0.41,23.1142559,72.4985809,60.02,10010,6.55,73.75,-0.62,-0.06,73.75,-0.62,-0.06,-2.12,-0.19,2.31,36.0,-37.25,-0.5,-21.5,0.63,1.03,1.65,-0.11,0.02,9.8,9.54,38.68,1003.68
37857,2921,70.42,26,1,0,1251600,0.41,23.1142559,72.4985809,60.02,10010,6.55,73.69,-0.69,-0.06,73.69,-0.69,-0.06,-3.0,-0.25,2.69,36.0,-37.0,-1.88,-21.38,-1.01,-0.08,-0.82,-0.11,0.01,9.8,9.73,38.69,1003.66
37858,2921,70.42,26,1,0,1251600,0.41,23.1142559,72.4985809,60.02,10010,6.55,73.62,-0.69,-0.06,73.62,-0.69,-0.06,-2.19,1.69,1.81,36.0,-35.75,-0.75,-20.25,0.44,1.43,1.36,-0.12,0.01,9.8,9.83,38.69,1003.65
37859,2921,70.42,26,1,0,1251600,0.41,23.1142559,72.4985809,60.02,10010,6.53,73.56,-0.69,0.0,73.56,-0.69,0.0,-1.31,-0.62,3.12,36.0,-35.75,-0.75,-20.25,-1.11,-0.65,-1.65,-0.12,0.0,9.8,9.87,38.7,1003.64
37860,2921,70.42,26,1,0,1251600,0.41,23.1142559,72.4985809,60.02,10010,6.57,73.5,-0.69,0.0,73.5,-0.69,0.0,1.62,0.75,0.75,36.0,-36.88,-1.19,-20.69,0.52,-0.25,0.69,-0.12,0.0,9.8,9.86,38.7,1003.64
37861,2921,70.42,26,1,0,1251600,0.41,23.1142559,72.4985809,60.02,10010,6.55,73.44,-0.75,0.0,73.44,-0.75,0.0,-2.62,0.69,2.56,36.0,-36.56,-1.19,-21.19,0.08,0.59,0.31,-0.13,0.0,9.8,10.04,38.71,1003.62
37862,2922,70.42,26,1,0,1251700,0.44,23.1142597,72.4985809,60.51,10010,6.55,72.75,-0.62,0.25,72.75,-0.62,0.25,0.12,-0.38,-0.12,36.0,-35.75,-0.5,-21.5,-0.3,0.08,-0.1,-0.1,-0.04,9.8,10.48,38.69,1003.57
37863,2922,70.42,26,1,0,1251700,0.44,23.1142597,72.4985809,60.51,10010,6.53,72.75,-0.56,0.25,72.75,-0.56,0.25,-0.81,-1.12,0.88,36.0,-36.19,-0.06,-20.25,0.13,0.36,-0.29,-0.1,-0.04,9.8,10.6,38.67,1003.56
37864,2922,70.42,26,1,0,1251700,0.44,23.1142597,72.4985809,60.51,10010,6.53,72.69,-0.56,0.25,72.69,-0.56,0.25,-0.12,-0.31,-0.06,36.0,-36.19,-0.06,-20.25,0.14,-0.9,0.32,-0.1,-0.05,9.8,10.81,38.67,1003.53
37865,2922,70.42,26,1,0,1251700,0.44,23.1142597,72.4985809,60.51,10010,6.53,72.69,-0.56,0.31,72.69,-0.56,0.31,-1.06,-1.38,0.56,36.0,-36.56,0.19,-21.06,-0.61,0.34,-1.06,-0.09,-0.05,9.8,10.97,38.67,1003.51
37866,2922,70.42,26,1,0,1251700,0.44,23.1142597,72.4985809,60.51,10010,6.55,72.69,-0.5,0.31,72.69,-0.5,0.31,-0.56,-1.25,0.06,36.0,-36.19,-0.5,-21.19,0.43,0.14,0.07,-0.09,-0.06,9.8,11.23,38.68,1003.48
37867,2922,70.42,26,1,0,1251700,0.44,23.1142597,72.4985809,60.51,10010,6.52,72.69,-0.5,0.38,72.69,-0.5,0.38,-1.19,-0.69,1.38,36.0,-36.5,0.0,-20.69,0.78,0.1,0.41,-0.08,-0.06,9.8,11.59,38.68,1003.44
37868,2922,70.42,26,1,0,1251700,0.44,23.1142597,72.4985809,60.51,10010,6.48,72.62,-0.44,0.38,72.62,-0.44,0.38,-0.69,-1.81,0.69,36.0,-35.25,0.69,-21.19,0.95,0.05,0.62,-0.07,-0.07,9.8,11.7,38.69,1003.42
37869,2922,70.42,26,1,0,1251700,0.44,23.1142597,72.4985809,60.51,10010,6.5,72.62,-0.38,0.38,72.62,-0.38,0.38,-1.62,-0.5,2.19,36.0,-35.25,0.69,-21.19,-0.87,-0.06,-0.62,-0.07,-0.07,9.8,11.9,38.69,1003.4
37870,2922,70.42,26,1,0,1251700,0.44,23.1142597,72.4985809,60.51,10010,6.57,72.56,-0.31,0.44,72.56,-0.31,0.44,-1.81,-0.19,1.25,36.0,-36.25,-0.25,-21.19,-0.31,-0.23,-0.51,-0.06,-0.07,9.8,12.07,38.7,1003.38
37871,2922,70.42,26,1,0,1251700,0.44,23.1142597,72.4985809,60.51,10010,6.57,72.56,-0.25,0.44,72.56,-0.25,0.44,-1.75,-1.31,2.06,36.0,-36.56,0.06,-20.69,1.08,-0.31,1.06,-0.05,-0.08,9.8,12.04,38.7,1003.38
37872,2922,70.42,26,1,0,1251700,0.44,23.1142597,72.4985809,60.51,10010,6.55,72.56,-0.19,0.44,72.56,-0.19,0.44,0.81,-2.06,-0.25,36.0,-36.19,0.0,-20.25,0.59,-0.36,0.87,-0.03,-0.08,9.8,12.11,38.71,1003.38
37873,2922,70.42,26,1,0,1251700,0.44,23.1142597,72.4985809,60.51,10010,6.55,72.5,-0.19,0.44,72.5,-0.19,0.44,0.31,-2.0,1.62,36.0,-36.19,0.0,-20.25,0.29,-0.32,0.7,-0.02,-0.08,9.8,12.22,38.71,1003.36
37874,2922,70.42,26,1,0,1251700,0.44,23.1142597,72.4985809,60.51,10010,6.55,72.5,-0.12,0.44,72.5,-0.12,0.44,0.88,-0.94,-0.44,36.0,-37.0,-0.56,-20.25,1.18,0.53,0.93,-0.02,-0.08,9.8,12.29,38.72,1003.35
37875,2923,70.42,26,1,0,1251700,0.44,23.1142597,72.4985809,60.51,10010,6.55,71.5,-0.06,0.31,71.5,-0.06,0.31,1.5,0.88,1.75,36.0,-36.0,0.69,-20.25,-1.18,-0.63,-1.64,-0.01,-0.05,9.8,12.5,38.69,1003.33
37876,2923,70.42,26,1,0,1251700,0.44,23.1142597,72.4985809,60.51,10010,6.53,71.44,-0.06,0.25,71.44,-0.06,0.25,-1.81,0.62,3.5,36.0,-37.19,0.0,-20.56,-0.03,0.09,0.37,-0.01,-0.04,9.8,12.78,38.68,1003.3
37877,2923,70.42,26,1,0,1251800,0.43,23.1142635,72.4985733,61.01,10010,6.55,71.31,-0.06,0.25,71.31,-0.06,0.25,2.88,0.25,0.69,36.0,-35.25,0.69,-21.06,0.45,0.5,0.28,-0.01,-0.03,9.8,12.95,38.68,1003.28
37878,2923,70.42,26,1,0,1251800,0.43,23.1142635,72.4985733,61.01,10010,6.55,71.25,-0.12,0.19,71.25,-0.12,0.19,-1.12,0.06,3.38,36.0,-36.06,0.38,-20.56,0.35,0.55,0.87,-0.02,-0.03,9.8,13.14,38.68,1003.25
37879,2923,70.42,26,1,0,1251800,0.43,23.1142635,72.4985733,61.01,10010,6.55,71.19,-0.12,0.19,71.19,-0.12,0.19,3.25,0.19,-0.06,36.0,-36.06,0.38,-20.56,-0.02,0.15,-0.26,-0.02,-0.03,9.8,13.41,38.68,1003.22
37880,2923,70.42,26,1,0,1251800,0.43,23.1142635,72.4985733,61.01,10010,6.55,71.12,-0.12,0.19,71.12,-0.12,0.19,-1.88,0.31,1.94,36.0,-36.5,0.75,-21.0,-0.77,-0.97,-1.15,-0.02,-0.03,9.8,13.6,38.69,1003.2
37881,2923,70.42,26,1,0,1251800,0.43,23.1142635,72.4985733,61.01,10010,6.55,71.06,-0.12,0.12,71.06,-0.12,0.12,0.0,-0.81,2.56,36.0,-36.06,0.75,-19.38,0.55,0.86,1.0,-0.02,-0.03,9.8,13.68,38.7,1003.19
37882,2923,70.42,26,1,0,1251800,0.43,23.1142635,72.4985733,61.01,10010,6.55,71.0,-0.12,0.12,71.0,-0.12,0.12,3.38,-0.44,0.19,36.0,-36.75,0.75,-20.19,-0.3,-0.81,-1.22,-0.02,-0.02,9.8,13.78,38.7,1003.18
37883,2923,70.42,26,1,0,1251800,0.43,23.1142635,72.4985733,61.01,10010,6.55,70.94,-0.06,0.12,70.94,-0.06,0.12,-1.62,-0.56,2.12,36.0,-36.75,1.06,-20.56,-0.73,-0.01,-0.12,-0.01,-0.02,9.8,13.91,38.71,1003.16
37884,2923,70.42,26,1,0,1251800,0.43,23.1142635,72.4985733,61.01,10010,6.57,70.94,-0.06,0.06,70.94,-0.06,0.06,0.94,-0.38,2.94,36.0,-36.75,1.06,-20.56,0.55,0.68,0.77,-0.01,-0.01,9.8,14.03,38.71,1003.15
37885,2923,70.42,26,1,0,1251800,0.43,23.1142635,72.4985733,61.01,10010,6.55,70.81,-0.06,0.06,70.81,-0.06,0.06,2.56,0.19,0.5,36.0,-35.75,1.5,-19.38,-0.36,-1.57,-1.67,-0.01,-0.01,9.8,14.09,38.72,1003.14
37886,2923,70.42,26,1,0,1251800,0.43,23.1142635,72.4985733,61.01,10010,6.55,70.75,-0.06,0.0,70.75,-0.06,0.0,-2.69,0.44,2.81,36.0,-37.25,0.25,-21.06,-0.45,0.87,0.76,-0.01,-0.01,9.8,14.1,38.72,1003.14
37887,2923,70.42,26,1,0,1251800,0.43,23.1142635,72.4985733,61.01,10010,6.55,70.69,-0.06,0.0,70.69,-0.06,0.0,2.0,0.06,2.62,36.0,-36.56,0.69,-19.75,0.47,-0.1,-0.5,-0.01,0.0,9.8,14.27,38.72,1003.12
37888,2924,70.42,26,1,0,1251800,0.43,23.1142635,72.4985733,61.01,10010,6.55,70.5,0.0,-0.12,70.5,0.0,-0.12,-2.19,-0.44,-0.25,36.0,-37.25,1.56,-20.19,-0.64,0.62,1.25,0.0,0.02,9.8,14.73,38.7,1003.06
37889,2924,70.42,26,1,0,1251800,0.43,23.1142635,72.4985733,61.01,10010,6.55,70.5,0.0,-0.12,70.5,0.0,-0.12,1.0,0.0,2.81,36.0,-37.25,1.56,-20.19,-0.41,0.42,-0.4,0.0,0.03,9.8,15.06,38.69,1003.02
37890,2924,70.42,26,1,0,1251800,0.43,23.1142635,72.4985733,61.01,10010,6.55,70.44,0.0,-0.12,70.44,0.0,-0.12,1.44,0.44,-1.44,36.0,-36.56,1.06,-20.56,0.46,-1.33,-1.47,0.0,0.03,9.8,15.26,38.69,1003.0
37891,2924,70.42,26,1,0,1251800,0.43,23.1142635,72.4985733,61.01,10010,6.53,70.44,0.0,-0.19,70.44,0.0,-0.19,-2.0,-0.81,1.5,36.0,-36.56,1.5,-21.88,-0.77,1.4,1.92,0.0,0.03,9.8,15.42,38.69,1002.98
37892,2924,70.42,26,1,0,1251900,0.44,23.1142654,72.4985733,61.53,10010,6.55,70.38,0.0,-0.19,70.38,0.0,-0.19,2.81,0.69,1.12,36.0,-36.88,1.56,-20.56,0.06,-1.52,-2.36,0.0,0.03,9.8,15.56,38.69,1002.97
37893,2924,70.42,26,1,0,1251900,0.44,23.1142654,72.4985733,61.53,10010,6.55,70.31,0.0,-0.19,70.31,0.0,-0.19,0.06,-0.75,1.44,36.0,-36.19,1.19,-20.19,-0.92,1.3,1.11,0.0,0.03,9.8,15.73,38.7,1002.95
37894,2924,70.42,26,1,0,1251900,0.44,23.1142654,72.4985733,61.53,10010,6.55,70.31,0.0,-0.25,70.31,0.0,-0.25,2.88,1.06,0.31,36.0,-36.19,1.19,-20.19,0.44,-1.75,-2.42,0.0,0.04,9.8,15.81,38.7,1002.93
37895,2924,70.42,26,1,0,1251900,0.44,23.1142654,72.4985733,61.53,10010,6.53,70.31,0.0,-0.25,70.31,0.0,-0.25,-1.12,-0.38,1.31,36.0,-36.88,1.19,-20.56,0.0,0.56,1.69,0.0,0.04,9.8,16.02,38.71,1002.91
37896,2924,70.42,26,1,0,1251900,0.44,23.1142654,72.4985733,61.53,10010,6.52,70.31,0.0,-0.31,70.31,0.0,-0.31,1.94,-0.69,0.06,36.0,-36.19,1.56,-21.38,-1.18,-0.19,-1.23,-0.01,0.06,9.8,16.14,38.71,1002.9
37897,2924,70.42,26,1,0,1251900,0.44,23.1142654,72.4985733,61.53,10010,6.53,70.25,0.0,-0.38,70.25,0.0,-0.38,2.0,0.88,0.5,36.0,-36.19,1.19,-20.19,0.99,-1.06,-0.72,-0.01,0.06,9.8,16.22,38.72,1002.89
37898,2924,70.42,26,1,0,1251900,0.44,23.1142654,72.4985733,61.53,10010,6.52,70.19,0.0,-0.38,70.19,0.0,-0.38,-1.38,-1.25,2.69,36.0,-35.75,1.19,-20.56,0.99,-0.61,0.32,0.0,0.07,9.8,16.3,38.72,1002.88
37899,2924,70.42,26,1,0,1251900,0.44,23.1142654,72.4985733,61.53,10010,6.55,70.19,0.0,-0.38,70.19,0.0,-0.38,2.38,-0.12,-1.12,36.0,-35.75,1.19,-20.56,-0.6,1.05,0.6,0.0,0.07,9.8,16.28,38.72,1002.88
37900,2924,70.42,26,1,0,1251900,0.44,23.1142654,72.4985733,61.53,10010,6.55,70.12,0.0,-0.44,70.12,0.0,-0.44,-0.44,0.19,4.12,36.0,-36.56,1.56,-19.38,-0.41,-1.55,-1.97,0.0,0.07,9.8,16.24,38.73,1002.88
37901,2925,70.42,26,1,0,1251900,0.44,23.1142654,72.4985733,61.53,10010,6.55,68.44,0.06,-0.62,68.44,0.06,-0.62,3.31,0.62,3.88,36.0,-36.5,2.0,-21.38,0.54,0.37,-0.03,0.01,0.11,9.8,16.73,38.71,1002.83
37902,2925,70.42,26,1,0,1251900,0.44,23.1142654,72.4985733,61.53,10010,6.55,68.25,0.0,-0.62,68.25,0.0,-0.62,0.19,0.75,4.81,36.0,-36.06,2.0,-19.75,-1.19,-2.15,-1.5,0.0,0.11,9.8,16.88,38.7,1002.81
37903,2925,70.42,26,1,0,1251900,0.44,23.1142654,72.4985733,61.53,10010,6.55,68.06,0.0,-0.62,68.06,0.0,-0.62,-2.56,-0.44,7.44,36.0,-35.56,1.69,-20.56,0.11,1.27,1.37,0.0,0.11,9.8,17.11,38.69,1002.78
37904,2925,70.42,26,1,0,1251900,0.44,23.1142654,72.4985733,61.53,10010,6.55,67.81,0.0,-0.62,67.81,0.0,-0.62,-2.5,-0.25,8.0,36.0,-35.56,1.69,-20.56,-1.23,-1.09,-0.47,0.0,0.11,9.8,17.28,38.69,1002.76
37905,2925,70.42,26,1,0,1251900,0.44,23.1142654,72.4985733,61.53,10010,6.55,67.56,0.0,-0.62,67.56,0.0,-0.62,-0.5,0.56,6.06,36.0,-35.5,2.75,-19.88,-0.03,1.21,1.37,0.0,0.1,9.8,17.44,38.7,1002.74
37906,2925,70.42,26,1,0,1251900,0.44,23.1142654,72.4985733,61.53,10010,6.55,67.44,0.0,-0.56,67.44,0.0,-0.56,1.06,1.31,0.56,36.0,-36.0,3.25,-20.25,0.08,1.13,0.83,0.0,0.1,9.8,17.56,38.71,1002.73
37907,2925,70.42,26,1,0,1252000,0.41,23.1142693,72.4985657,62.09,10010,6.55,67.31,0.0,-0.56,67.31,0.0,-0.56,-3.5,0.06,3.75,36.0,-35.25,2.88,-19.38,-0.48,-2.56,-1.79,0.0,0.1,9.8,17.68,38.71,1002.71
37908,2925,70.42,26,1,0,1252000,0.41,23.1142693,72.4985657,62.09,10010,6.53,67.31,0.0,-0.56,67.31,0.0,-0.56,1.69,0.62,2.56,36.0,-36.0,4.06,-20.25,0.87,0.74,-0.21,0.0,0.1,9.8,17.86,38.71,1002.69
37909,2925,70.42,26,1,0,1252000,0.41,23.1142693,72.4985657,62.09,10010,6.53,67.19,0.0,-0.56,67.19,0.0,-0.56,1.0,-0.5,0.62,36.0,-36.0,4.06,-20.25,-0.38,-1.83,-0.93,0.0,0.1,9.8,18.01,38.72,1002.67
37910,2925,70.42,26,1,0,1252000,0.41,23.1142693,72.4985657,62.09,10010,6.55,67.12,0.0,-0.56,67.12,0.0,-0.56,-2.06,-0.56,5.5,36.0,-36.56,2.88,-21.5,-0.88,1.26,1.2,0.0,0.1,9.8,18.21,38.73,1002.65
37911,2925,70.42,26,1,0,1252000,0.41,23.1142693,72.4985657,62.09,10010,6.55,66.94,0.0,-0.56,66.94,0.0,-0.56,2.19,0.81,2.94,36.0,-35.25,3.25,-19.69,0.48,-1.74,-1.69,0.0,0.1,9.8,18.35,38.73,1002.63
37912,2925,70.42,26,1,0,1252000,0.41,23.1142693,72.4985657,62.09,10010,6.55,66.81,0.0,-0.56,66.81,0.0,-0.56,-0.44,-0.31,4.88,36.0,-36.5,4.0,-20.69,-0.45,1.3,1.3,0.0,0.1,9.8,18.5,38.73,1002.61
37913,2925,70.42,26,1,0,1252000,0.41,23.1142693,72.4985657,62.09,10010,6.55,66.69,0.0,-0.56,66.69,0.0,-0.56,1.62,-0.06,1.81,36.0,-36.5,4.0,-20.69,0.46,-2.23,-1.46,0.0,0.1,9.8,18.56,38.74,1002.61
37914,2926,70.42,26,1,0,1252000,0.41,23.1142693,72.4985657,62.09,10010,6.55,65.81,0.0,-0.38,65.81,0.0,-0.38,0.06,-0.94,1.88,36.0,-34.88,4.06,-20.56,-0.9,0.07,0.97,0.0,0.07,9.8,18.84,38.71,1002.57
37915,2926,70.42,26,1,0,1252000,0.41,23.1142693,72.4985657,62.09,10010,6.55,65.69,0.0,-0.44,65.69,0.0,-0.44,0.25,-0.31,3.81,36.0,-34.5,3.75,-19.69,-0.77,-0.61,-0.42,0.0,0.07,9.8,19.09,38.7,1002.55
37916,2926,70.42,26,1,0,1252000,0.41,23.1142693,72.4985657,62.09,10010,6.55,65.56,0.0,-0.44,65.56,0.0,-0.44,-0.19,-0.56,5.94,36.0,-34.88,4.25,-20.56,1.36,-0.57,-0.82,0.0,0.07,9.8,19.19,38.7,1002.53
37917,2926,70.42,26,1,0,1252000,0.41,23.1142693,72.4985657,62.09,10010,6.55,65.31,0.0,-0.44,65.31,0.0,-0.44,0.81,-0.62,4.0,36.0,-34.88,5.0,-20.56,-0.38,0.46,0.05,0.0,0.08,9.8,19.42,38.7,1002.5
37918,2926,70.42,26,1,0,1252000,0.41,23.1142693,72.4985657,62.09,10010,6.55,65.12,0.0,-0.44,65.12,0.0,-0.44,-0.81,-0.12,4.5,36.0,-34.88,5.0,-20.56,0.45,-0.52,0.4,0.0,0.08,9.8,19.56,38.71,1002.49
37919,2926,70.42,26,1,0,1252000,0.41,23.1142693,72.4985657,62.09,10010,6.55,64.94,0.0,-0.5,64.94,0.0,-0.5,2.0,-1.0,3.88,36.0,-35.25,4.25,-20.19,-0.72,-0.36,-0.88,0.0,0.08,9.8,19.74,38.71,1002.47
37920,2926,70.42,26,1,0,1252000,0.41,23.1142693,72.4985657,62.09,10010,6.55,64.75,0.0,-0.5,64.75,0.0,-0.5,0.0,-0.25,5.75,36.0,-34.5,4.69,-20.56,0.31,-0.01,-0.89,0.01,0.08,9.8,19.88,38.72,1002.45
37921,2926,70.42,26,1,0,1252000,0.41,23.1142693,72.4985657,62.09,10010,6.53,64.56,0.06,-0.5,64.56,0.06,-0.5,-1.69,-0.69,5.75,36.0,-34.88,5.5,-19.38,0.75,0.55,1.07,0.01,0.08,9.8,19.98,38.72,1002.44
37922,2926,70.42,26,1,0,1252100,0.41,23.1142712,72.4985657,62.67,10010,6.55,64.38,0.06,-0.5,64.38,0.06,-0.5,2.56,0.06,1.69,36.0,-34.19,5.88,-20.56,-1.49,-0.99,-0.65,0.01,0.09,9.8,20.11,38.73,1002.42
37923,2926,70.42,26,1,0,1252100,0.41,23.1142712,72.4985657,62.67,10010,6.55,64.25,0.06,-0.5,64.25,0.06,-0.5,-1.19,0.12,4.69,36.0,-34.19,5.88,-20.56,0.13,-0.26,0.04,0.01,0.08,9.8,20.34,38.73,1002.4
37924,2926,70.42,26,1,0,1252100,0.41,23.1142712,72.4985657,62.67,10010,6.55,64.12,0.06,-0.5,64.12,0.06,-0.5,-2.0,-1.06,3.81,36.0,-35.06,4.5,-20.56,0.78,-0.02,-0.51,0.01,0.08,9.8,20.54,38.73,1002.37
37925,2926,70.42,26,1,0,1252100,0.41,23.1142712,72.4985657,62.67,10010,6.55,64.06,0.06,-0.44,64.06,0.06,-0.44,4.38,0.06,-0.06,36.0,-34.06,5.56,-20.56,-1.45,-0.09,-0.77,0.01,0.09,9.8,20.73,38.74,1002.35
37926,2926,70.42,26,1,0,1252100,0.41,23.1142712,72.4985657,62.67,10010,6.55,63.94,0.06,-0.5,63.94,0.06,-0.5,2.19,-0.19,1.5,36.0,-35.19,6.38,-19.38,-0.01,-1.3,-0.92,0.01,0.09,9.8,20.89,38.74,1002.33
37927,2927,70.42,26,1,0,1252100,0.41,23.1142712,72.4985657,62.67,10010,6.5,61.81,0.25,-0.81,61.81,0.25,-0.81,0.19,-1.19,2.81,36.0,-34.5,6.56,-19.88,0.47,-0.15,0.31,0.05,0.15,9.8,21.21,38.72,1002.29
37928,2927,70.42,26,1,0,1252100,0.41,23.1142712,72.4985657,62.67,10010,6.52,61.75,0.31,-0.88,61.75,0.31,-0.88,2.75,0.25,0.75,36.0,-34.5,6.56,-19.88,-0.04,-2.06,-1.48,0.05,0.15,9.8,21.46,38.71,1002.26
37929,2927,70.42,26,1,0,1252100,0.41,23.1142712,72.4985657,62.67,10010,6.55,61.69,0.31,-0.94,61.69,0.31,-0.94,2.44,-0.25,0.75,36.0,-34.06,7.5,-20.19,-0.98,1.05,-0.18,0.05,0.16,9.8,21.71,38.71,1002.23
37930,2927,70.42,26,1,0,1252100,0.41,23.1142712,72.4985657,62.67,10010,6.47,61.62,0.31,-0.94,61.62,0.31,-0.94,-0.25,0.25,2.0,36.0,-34.56,7.06,-19.75,-0.04,-1.62,-0.49,0.06,0.16,9.8,21.8,38.71,1002.22
37931,2927,70.42,26,1,0,1252100,0.41,23.1142712,72.4985657,62.67,10010,6.5,61.62,0.31,-0.94,61.62,0.31,-0.94,-1.0,-1.19,0.06,36.0,-34.25,7.56,-19.38,0.06,0.04,0.48,0.06,0.16,9.8,21.96,38.71,1002.2
37932,2927,70.42,26,1,0,1252100,0.41,23.1142712,72.4985657,62.67,10010,6.48,61.56,0.31,-0.94,61.56,0.31,-0.94,-2.19,-0.44,1.0,36.0,-34.25,8.25,-18.88,-0.12,0.17,0.62,0.06,0.16,9.8,22.17,38.72,1002.18
37933,2927,70.42,26,1,0,1252100,0.41,23.1142712,72.4985657,62.67,10010,6.47,61.56,0.38,-0.94,61.56,0.38,-0.94,0.94,-1.06,-0.44,36.0,-34.25,8.25,-18.88,-0.33,0.46,0.67,0.06,0.16,9.8,22.31,38.72,1002.16
37934,2927,70.42,26,1,0,1252100,0.41,23.1142712,72.4985657,62.67,10010,6.53,61.56,0.38,-0.94,61.56,0.38,-0.94,1.31,-0.06,0.25,36.0,-34.75,7.19,-19.75,-1.23,-0.68,-0.73,0.06,0.17,9.8,22.48,38.73,1002.14
37935,2927,70.42,26,1,0,1252100,0.41,23.1142712,72.4985657,62.67,10010,6.57,61.56,0.38,-1.0,61.56,0.38,-1.0,-0.94,-0.94,0.5,36.0,-35.19,6.38,-19.38,0.92,-0.7,-0.66,0.07,0.17,9.8,22.53,38.73,1002.14
37936,2927,70.42,26,1,0,1252100,0.41,23.1142712,72.4985657,62.67,10010,6.57,61.56,0.44,-1.06,61.56,0.44,-1.06,2.06,-0.69,-0.31,36.0,-34.75,7.19,-20.56,-0.58,0.73,0.36,0.07,0.18,9.8,22.66,38.74,1002.12
37937,2927,70.42,26,1,0,1252200,0.41,23.114275,72.4985657,63.27,10010,6.57,61.5,0.44,-1.06,61.5,0.44,-1.06,2.5,0.31,0.38,36.0,-34.75,6.75,-20.19,-1.06,-0.69,-0.75,0.07,0.19,9.8,22.81,38.74,1002.1
37938,2927,70.42,26,1,0,1252200,0.41,23.114275,72.4985657,63.27,10010,6.57,61.5,0.44,-1.12,61.5,0.44,-1.12,-2.0,0.06,1.56,36.0,-34.75,6.75,-20.19,1.08,-0.35,0.51,0.07,0.19,9.8,22.87,38.75,1002.1
37939,2927,70.42,26,1,0,1252200,0.41,23.114275,72.4985657,63.27,10010,6.55,61.5,0.44,-1.12,61.5,0.44,-1.12,1.94,0.31,-0.88,36.0,-36.25,6.06,-19.38,-0.84,-0.44,-0.14,0.07,0.2,9.8,22.92,38.75,1002.09
37940,2928,70.42,26,1,0,1252200,0.41,23.114275,72.4985657,63.27,10010,6.5,61.12,0.38,-1.06,61.12,0.38,-1.06,0.75,-0.06,2.31,36.0,-35.38,7.06,-20.19,-1.23,0.0,0.05,0.07,0.19,9.8,23.24,38.73,1002.05
37941,2928,70.42,26,1,0,1252200,0.41,23.114275,72.4985657,63.27,10010,6.52,61.06,0.38,-1.12,61.06,0.38,-1.12,-1.5,0.31,3.06,36.0,-35.38,6.69,-19.38,0.43,0.11,-0.52,0.07,0.19,9.8,23.54,38.72,1002.02
37942,2928,70.42,26,1,0,1252200,0.41,23.114275,72.4985657,63.27,10010,6.53,61.0,0.38,-1.06,61.0,0.38,-1.06,1.56,0.81,1.31,36.0,-34.25,7.75,-20.19,0.34,-1.13,-0.57,0.07,0.19,9.8,23.75,38.71,1001.99
37943,2928,70.42,26,1,0,1252200,0.41,23.114275,72.4985657,63.27,10010,6.55,60.94,0.38,-1.12,60.94,0.38,-1.12,-0.69,-0.81,1.06,36.0,-34.25,7.75,-20.19,-1.12,1.17,0.69,0.07,0.19,9.8,23.99,38.72,1001.96
37944,2928,70.42,26,1,0,1252200,0.41,23.114275,72.4985657,63.27,10010,6.48,60.88,0.38,-1.12,60.88,0.38,-1.12,0.06,0.38,1.81,36.0,-33.56,7.5,-18.88,0.17,-1.11,-0.88,0.07,0.19,9.8,24.27,38.72,1001.93
37945,2928,70.42,26,1,0,1252200,0.41,23.114275,72.4985657,63.27,10010,6.5,60.81,0.38,-1.12,60.81,0.38,-1.12,0.0,0.38,0.44,36.0,-34.69,7.06,-19.38,0.22,-0.73,0.53,0.07,0.19,9.8,24.42,38.72,1001.91
37946,2928,70.42,26,1,0,1252200,0.41,23.114275,72.4985657,63.27,10010,6.53,60.81,0.38,-1.12,60.81,0.38,-1.12,-0.62,-0.94,0.81,36.0,-34.25,6.69,-20.19,-1.33,1.0,-0.79,0.07,0.19,9.8,24.58,38.73,1001.89
37947,2928,70.42,26,1,0,1252200,0.41,23.114275,72.4985657,63.27,10010,6.52,60.81,0.38,-1.06,60.81,0.38,-1.06,2.12,0.62,0.31,36.0,-33.88,8.25,-19.38,0.38,-1.33,-0.5,0.07,0.19,9.8,24.74,38.73,1001.87
37948,2928,70.42,26,1,0,1252200,0.41,23.114275,72.4985657,63.27,10010,6.55,60.75,0.38,-1.12,60.75,0.38,-1.12,1.19,-0.31,0.69,36.0,-33.88,8.25,-19.38,0.17,0.64,1.0,0.06,0.19,9.8,24.88,38.74,1001.86
37949,2928,70.42,26,1,0,1252200,0.41,23.114275,72.4985657,63.27,10010,6.55,60.75,0.38,-1.12,60.75,0.38,-1.12,1.88,1.19,-0.44,36.0,-34.69,7.56,-21.06,-1.21,-0.63,-1.29,0.06,0.2,9.8,25.08,38.74,1001.83
37950,2928,70.42,26,1,0,1252200,0.41,23.114275,72.4985657,63.27,10010,6.57,60.75,0.38,-1.12,60.75,0.38,-1.12,2.69,0.94,-0.56,36.0,-34.69,7.19,-21.06,-1.17,-0.9,-1.09,0.06,0.2,9.8,25.16,38.75,1001.82
37951,2928,70.42,26,1,0,1252200,0.41,23.114275,72.4985657,63.27,10010,6.55,60.75,0.38,-1.19,60.75,0.38,-1.19,-2.69,0.06,2.31,36.0,-34.25,6.75,-19.75,1.57,-0.19,0.76,0.06,0.2,9.8,25.25,38.75,1001.81
37952,2928,70.42,26,1,0,1252300,0.56,23.1142769,72.498558,63.93,10010,6.57,60.69,0.31,-1.19,60.69,0.31,-1.19,2.5,-0.25,-1.12,36.0,-34.69,7.56,-20.19,-0.74,0.0,-0.98,0.06,0.21,9.8,25.19,38.75,1001.82
37953,2929,70.42,26,1,0,1252300,0.56,23.1142769,72.498558,63.93,10010,6.5,60.31,0.31,-1.12,60.31,0.31,-1.12,1.5,-0.5,0.56,36.0,-34.5,0.88,-23.88,-1.64,-0.32,-0.77,0.05,0.19,9.8,25.67,38.73,1001.76
37954,2929,70.42,26,1,0,1252300,0.56,23.1142769,72.498558,63.93,10010,6.53,60.25,0.31,-1.12,60.25,0.31,-1.12,-2.81,0.25,4.0,36.0,-34.5,0.88,-23.88,0.29,0.71,0.63,0.05,0.19,9.8,25.88,38.72,1001.74
37955,2929,70.42,26,1,0,1252300,0.56,23.1142769,72.498558,63.93,10010,6.5,60.19,0.31,-1.12,60.19,0.31,-1.12,1.94,0.5,0.56,36.0,-34.06,0.19,-22.19,0.42,-2.18,-1.56,0.05,0.2,9.8,26.03,38.72,1001.72
37956,2929,70.42,26,1,0,1252300,0.56,23.1142769,72.498558,63.93,10010,6.52,60.12,0.31,-1.12,60.12,0.31,-1.12,-0.31,-0.12,1.81,36.0,-34.0,2.06,-22.69,-1.6,1.44,0.96,0.05,0.19,9.8,26.28,38.72,1001.69
37957,2929,70.42,26,1,0,1252300,0.56,23.1142769,72.498558,63.93,10010,6.53,60.06,0.31,-1.12,60.06,0.31,-1.12,-2.88,1.12,3.69,36.0,-34.06,1.75,-21.5,1.1,-0.58,-0.6,0.05,0.18,9.8,26.37,38.73,1001.68
37958,2929,70.42,26,1,0,1252300,0.56,23.1142769,72.498558,63.93,10010,6.53,59.94,0.25,-1.06,59.94,0.25,-1.06,-3.0,0.38,2.56,36.0,-34.5,2.88,-22.56,-1.14,1.88,1.46,0.04,0.18,9.8,26.59,38.73,1001.65
37959,2929,70.42,26,1,0,1252300,0.56,23.1142769,72.498558,63.93,10010,6.47,59.94,0.25,-1.06,59.94,0.25,-1.06,0.5,1.25,1.81,36.0,-34.5,2.88,-22.56,0.53,-1.56,-1.74,0.04,0.18,9.8,26.68,38.74,1001.64
37960,2929,70.42,26,1,0,1252300,0.56,23.1142769,72.498558,63.93,10010,6.53,59.81,0.25,-1.06,59.81,0.25,-1.06,1.25,0.19,1.0,36.0,-34.06,2.0,-22.69,-0.62,-0.07,0.62,0.04,0.18,9.8,26.71,38.74,1001.64
37961,2929,70.42,26,1,0,1252300,0.56,23.1142769,72.498558,63.93,10010,6.53,59.81,0.19,-1.06,59.81,0.19,-1.06,-2.25,0.0,2.25,36.0,-35.0,2.0,-22.25,-0.07,0.78,0.6,0.04,0.18,9.8,26.93,38.75,1001.61
37962,2929,70.42,26,1,0,1252300,0.56,23.1142769,72.498558,63.93,10010,6.55,59.75,0.19,-1.06,59.75,0.19,-1.06,3.31,1.12,0.38,36.0,-34.5,2.0,-24.25,0.26,-2.12,-2.69,0.03,0.19,9.8,26.91,38.75,1001.61
37963,2929,70.42,26,1,0,1252300,0.56,23.1142769,72.498558,63.93,10010,6.53,59.69,0.19,-1.06,59.69,0.19,-1.06,0.31,-0.06,1.5,36.0,-34.5,2.0,-24.25,-0.72,-0.37,-0.51,0.03,0.18,9.8,26.88,38.76,1001.62
37964,2929,70.42,26,1,0,1252300,0.56,23.1142769,72.498558,63.93,10010,6.53,59.62,0.19,-1.06,59.62,0.19,-1.06,2.06,0.69,0.38,36.0,-34.56,2.38,-22.69,-1.18,-0.57,-1.47,0.03,0.18,9.8,26.92,38.76,1001.61
37965,2929,70.42,26,1,0,1252300,0.56,23.1142769,72.498558,63.93,10010,6.55,59.56,0.19,-1.06,59.56,0.19,-1.06,2.88,0.31,-0.62,36.0,-34.19,2.0,-23.5,0.44,-1.3,0.32,0.04,0.18,9.8,27.05,38.77,1001.6
37966,2930,70.42,26,1,0,1252400,0.44,23.1142788,72.498558,64.61,10010,6.53,58.88,0.38,-0.94,58.88,0.38,-0.94,0.44,-0.5,3.06,36.0,-35.06,2.75,-24.0,0.24,-1.47,-1.32,0.06,0.17,9.8,27.36,38.75,1001.56
37967,2930,70.42,26,1,0,1252400,0.44,23.1142788,72.498558,64.61,10010,6.5,58.81,0.38,-0.94,58.81,0.38,-0.94,-0.5,0.69,-1.44,36.0,-34.0,3.19,-22.25,-0.71,0.1,1.34,0.07,0.16,9.8,27.71,38.73,1001.52
37968,2930,70.42,26,1,0,1252400,0.44,23.1142788,72.498558,64.61,10010,6.43,58.75,0.38,-0.94,58.75,0.38,-0.94,-1.31,-1.44,2.31,36.0,-33.69,2.75,-22.25,-0.86,-0.25,-1.22,0.07,0.16,9.8,27.93,38.73,1001.49
37969,2930,70.42,26,1,0,1252400,0.44,23.1142788,72.498558,64.61,10010,6.5,58.75,0.44,-0.88,58.75,0.44,-0.88,-2.94,-0.44,-1.5,36.0,-33.69,2.75,-22.25,-0.77,1.16,1.44,0.07,0.15,9.8,28.18,38.73,1001.46
37970,2930,70.42,26,1,0,1252400,0.44,23.1142788,72.498558,64.61,10010,6.45,58.69,0.44,-0.88,58.69,0.44,-0.88,1.31,-1.06,1.88,36.0,-33.69,3.19,-22.25,-1.01,-0.7,-1.23,0.08,0.15,9.8,28.34,38.74,1001.44
37971,2930,70.42,26,1,0,1252400,0.44,23.1142788,72.498558,64.61,10010,6.47,58.69,0.44,-0.81,58.69,0.44,-0.81,1.25,-1.69,0.56,36.0,-34.25,2.88,-23.06,-0.54,-0.6,-1.25,0.08,0.14,9.8,28.49,38.74,1001.43
37972,2930,70.42,26,1,0,1252400,0.44,23.1142788,72.498558,64.61,10010,6.52,58.75,0.5,-0.81,58.75,0.5,-0.81,0.44,-0.19,0.19,36.0,-34.0,4.0,-21.88,0.93,-1.41,0.88,0.08,0.14,9.8,28.73,38.74,1001.4
37973,2930,70.42,26,1,0,1252400,0.44,23.1142788,72.498558,64.61,10010,6.55,58.75,0.5,-0.81,58.75,0.5,-0.81,2.31,-1.31,1.88,36.0,-34.69,4.0,-23.06,0.17,-0.31,-1.65,0.09,0.14,9.8,28.97,38.75,1001.37
37974,2930,70.42,26,1,0,1252400,0.44,23.1142788,72.498558,64.61,10010,6.55,58.75,0.56,-0.81,58.75,0.56,-0.81,-0.19,0.19,-1.06,36.0,-34.69,4.0,-23.06,0.48,-0.45,1.36,0.09,0.14,9.8,29.14,38.75,1001.35
37975,2930,70.42,26,1,0,1252400,0.44,23.1142788,72.498558,64.61,10010,6.55,58.75,0.56,-0.81,58.75,0.56,-0.81,-1.62,-0.44,-1.31,36.0,-34.38,2.5,-21.88,-1.38,0.17,0.02,0.09,0.14,9.8,29.22,38.76,1001.34
37976,2930,70.42,26,1,0,1252400,0.44,23.1142788,72.498558,64.61,10010,6.57,58.75,0.56,-0.81,58.75,0.56,-0.81,1.0,-0.62,1.94,36.0,-34.06,3.25,-23.06,0.04,-1.38,-1.58,0.1,0.14,9.8,29.28,38.77,1001.33
37977,2930,70.42,26,1,0,1252400,0.44,23.1142788,72.498558,64.61,10010,6.55,58.75,0.56,-0.81,58.75,0.56,-0.81,0.06,0.81,-1.19,36.0,-34.38,2.5,-23.06,-0.28,-1.5,-0.92,0.09,0.13,9.8,29.37,38.77,1001.32
37978,2930,70.42,26,1,0,1252400,0.44,23.1142788,72.498558,64.61,10010,6.55,58.75,0.56,-0.75,58.75,0.56,-0.75,-2.44,0.62,-1.12,36.0,-35.06,2.5,-22.69,0.1,0.16,0.78,0.09,0.13,9.8,29.46,38.77,1001.31
37979,2931,70.42,26,1,0,1252500,0.36,23.1142807,72.4985657,65.34,10010,6.48,58.81,0.5,-0.88,58.81,0.5,-0.88,-1.12,-0.19,2.69,36.0,-34.25,2.5,-22.69,0.31,0.01,1.05,0.09,0.14,9.8,29.89,38.75,1001.26
37980,2931,70.42,26,1,0,1252500,0.36,23.1142807,72.4985657,65.34,10010,6.52,58.75,0.5,-0.81,58.75,0.5,-0.81,2.12,-0.06,-2.81,36.0,-35.06,3.25,-23.06,-1.37,-0.88,-1.12,0.09,0.15,9.8,30.23,38.74,1001.22
37981,2931,70.42,26,1,0,1252500,0.36,23.1142807,72.4985657,65.34,10010,6.57,58.75,0.56,-0.81,58.75,0.56,-0.81,-1.31,-0.31,-0.56,36.0,-34.25,2.88,-22.69,0.27,-0.11,-0.53,0.09,0.14,9.8,30.53,38.74,1001.18
37982,2931,70.42,26,1,0,1252500,0.36,23.1142807,72.4985657,65.34,10010,6.53,58.81,0.56,-0.81,58.81,0.56,-0.81,-0.56,-0.75,4.12,36.0,-34.69,3.56,-21.75,0.5,0.08,0.11,0.1,0.14,9.8,30.65,38.74,1001.17
37983,2931,70.42,26,1,0,1252500,0.36,23.1142807,72.4985657,65.34,10010,6.53,58.75,0.56,-0.81,58.75,0.56,-0.81,-2.06,-0.19,2.69,36.0,-34.69,3.56,-22.25,-1.87,0.28,-0.85,0.1,0.15,9.8,30.81,38.74,1001.15
37984,2931,70.42,26,1,0,1252500,0.36,23.1142807,72.4985657,65.34,10010,6.52,58.75,0.56,-0.88,58.75,0.56,-0.88,0.81,-0.94,1.94,36.0,-34.69,3.56,-22.25,-0.18,-1.42,-0.97,0.1,0.15,9.8,30.95,38.75,1001.13
37985,2931,70.42,26,1,0,1252500,0.36,23.1142807,72.4985657,65.34,10010,6.52,58.75,0.56,-0.88,58.75,0.56,-0.88,1.69,0.38,-3.62,36.0,-34.69,3.25,-21.75,-1.47,0.85,-0.5,0.1,0.15,9.8,31.07,38.75,1001.12
37986,2931,70.42,26,1,0,1252500,0.36,23.1142807,72.4985657,65.34,10010,6.55,58.62,0.56,-0.88,58.62,0.56,-0.88,-2.0,-0.19,7.69,36.0,-34.0,3.25,-21.75,1.59,0.48,0.18,0.1,0.15,9.8,31.22,38.76,1001.1
37987,2931,70.42,26,1,0,1252500,0.36,23.1142807,72.4985657,65.34,10010,6.55,58.62,0.56,-0.94,58.62,0.56,-0.94,3.31,0.25,-0.81,36.0,-34.25,2.88,-20.56,-1.23,-1.82,-1.22,0.1,0.16,9.8,31.21,38.77,1001.1
37988,2931,70.42,26,1,0,1252500,0.36,23.1142807,72.4985657,65.34,10010,6.55,58.5,0.56,-0.94,58.5,0.56,-0.94,-0.75,0.69,-0.19,36.0,-34.0,2.88,-22.25,-0.11,1.49,1.94,0.1,0.16,9.8,31.45,38.77,1001.07
37989,2931,70.42,26,1,0,1252500,0.36,23.1142807,72.4985657,65.34,10010,6.55,58.38,0.56,-0.94,58.38,0.56,-0.94,-0.19,-0.38,7.0,36.0,-34.0,2.88,-22.25,0.34,-1.12,-1.96,0.1,0.16,9.8,31.64,38.77,1001.05
37990,2931,70.42,26,1,0,1252500,0.36,23.1142807,72.4985657,65.34,10010,6.57,58.38,0.56,-0.94,58.38,0.56,-0.94,3.06,0.75,-3.69,36.0,-34.69,1.38,-22.69,-1.35,-0.32,0.03,0.09,0.17,9.8,31.6,38.78,1001.06
37991,2931,70.42,26,1,0,1252500,0.36,23.1142807,72.4985657,65.34,10010,6.57,58.31,0.56,-1.0,58.31,0.56,-1.0,-3.12,-0.12,2.5,36.0,-34.56,3.25,-24.0,0.4,0.7,1.23,0.09,0.16,9.8,31.72,38.78,1001.04
37992,2932,70.42,26,1,0,1252600,0.33,23.1142845,72.4985657,65.98,10010,6.5,58.06,0.62,-1.0,58.06,0.62,-1.0,2.25,-0.06,-3.56,36.0,-34.0,3.25,-23.06,-0.85,-0.62,0.0,0.1,0.18,9.8,32.13,38.76,1000.99
37993,2932,70.42,26,1,0,1252600,0.33,23.1142845,72.4985657,65.98,10010,6.48,58.12,0.62,-1.0,58.12,0.62,-1.0,1.44,-0.44,-0.25,36.0,-34.0,4.25,-21.88,-0.47,-0.57,-1.27,0.11,0.17,9.8,32.33,38.75,1000.97
37994,2932,70.42,26,1,0,1252600,0.33,23.1142845,72.4985657,65.98,10010,6.5,58.06,0.62,-1.06,58.06,0.62,-1.06,1.38,-0.44,-2.44,36.0,-34.0,4.25,-21.88,-0.63,0.68,0.36,0.11,0.18,9.8,32.56,38.74,1000.94
37995,2932,70.42,26,1,0,1252600,0.33,23.1142845,72.4985657,65.98,10010,6.52,58.06,0.69,-1.06,58.06,0.69,-1.06,-1.31,-1.19,2.88,36.0,-34.0,4.0,-22.25,0.13,-0.89,0.29,0.12,0.18,9.8,32.71,38.75,1000.92
37996,2932,70.42,26,1,0,1252600,0.33,23.1142845,72.4985657,65.98,10010,6.5,58.06,0.69,-1.06,58.06,0.69,-1.06,1.56,-0.12,1.56,36.0,-34.69,3.25,-21.0,-0.57,-1.8,-1.01,0.12,0.19,9.8,32.89,38.75,1000.9
37997,2932,70.42,26,1,0,1252600,0.33,23.1142845,72.4985657,65.98,10010,6.52,58.06,0.69,-1.12,58.06,0.69,-1.12,-0.62,0.56,-3.81,36.0,-34.0,3.56,-21.88,-0.99,1.27,0.13,0.12,0.19,9.8,33.04,38.75,1000.89
37998,2932,70.42,26,1,0,1252600,0.33,23.1142845,72.4985657,65.98,10010,6.52,58.06,0.69,-1.06,58.06,0.69,-1.06,-0.06,-0.25,-0.19,36.0,-34.0,3.56,-21.88,-0.34,-1.39,0.16,0.12,0.19,9.8,33.21,38.76,1000.86
37999,2932,70.42,26,1,0,1252600,0.33,23.1142845,72.4985657,65.98,10010,6.5,58.06,0.69,-1.06,58.06,0.69,-1.06,0.25,0.0,-3.38,36.0,-34.25,4.25,-23.06,-0.45,-0.49,0.63,0.12,0.18,9.8,33.34,38.77,1000.85
38000,2932,70.42,26,1,0,1252600,0.33,23.1142845,72.4985657,65.98,10010,6.53,58.06,0.69,-1.06,58.06,0.69,-1.06,0.69,0.5,-4.25,36.0,-33.69,3.56,-22.69,-0.74,0.03,0.53,0.12,0.19,9.8,33.52,38.77,1000.83
38001,2932,70.42,26,1,0,1252600,0.33,23.1142845,72.4985657,65.98,10010,6.53,58.06,0.69,-1.12,58.06,0.69,-1.12,-0.44,-0.88,2.94,36.0,-34.25,3.25,-22.69,0.39,-1.44,-1.7,0.12,0.19,9.8,33.57,38.77,1000.82
38002,2932,70.42,26,1,0,1252600,0.33,23.1142845,72.4985657,65.98,10010,6.57,58.06,0.69,-1.12,58.06,0.69,-1.12,-0.62,-0.06,-2.19,36.0,-34.0,3.25,-23.5,-0.43,0.26,0.06,0.12,0.19,9.8,33.67,38.78,1000.81
38003,2932,70.42,26,1,0,1252600,0.33,23.1142845,72.4985657,65.98,10010,6.57,58.06,0.75,-1.12,58.06,0.75,-1.12,-0.06,-1.25,3.69,36.0,-34.0,3.25,-23.5,0.07,-1.38,-0.68,0.13,0.19,9.8,33.78,38.78,1000.8
38004,2932,70.42,26,1,0,1252600,0.33,23.1142845,72.4985657,65.98,10010,6.53,58.06,0.75,-1.06,58.06,0.75,-1.06,1.5,0.88,-4.06,36.0,-33.69,3.25,-24.0,-0.11,0.41,0.68,0.13,0.19,9.8,33.92,38.79,1000.78
38005,2933,70.42,26,1,0,1252700,0.35,23.1142864,72.498558,66.69,10010,6.52,58.06,0.94,-1.25,58.06,0.94,-1.25,-0.75,-0.31,0.0,36.0,-34.25,3.0,-23.06,-0.16,0.66,0.44,0.17,0.21,9.8,34.37,38.76,1000.73
38006,2933,70.42,26,1,0,1252700,0.35,23.1142864,72.498558,66.69,10010,6.43,58.06,1.0,-1.25,58.06,1.0,-1.25,0.31,-0.94,3.5,36.0,-34.69,4.06,-23.06,-0.9,-1.0,-0.64,0.17,0.21,9.8,34.63,38.75,1000.7
38007,2933,70.42,26,1,0,1252700,0.35,23.1142864,72.498558,66.69,10010,6.5,58.06,1.0,-1.25,58.06,1.0,-1.25,2.19,0.69,-3.06,36.0,-34.69,4.38,-21.5,-0.08,-0.36,-0.43,0.17,0.22,9.8,34.79,38.75,1000.68
38008,2933,70.42,26,1,0,1252700,0.35,23.1142864,72.498558,66.69,10010,6.52,58.06,1.0,-1.31,58.06,1.0,-1.31,1.56,-0.81,3.31,36.0,-34.69,4.38,-21.5,-1.23,-0.8,0.09,0.17,0.22,9.8,34.96,38.75,1000.66
38009,2933,70.42,26,1,0,1252700,0.35,23.1142864,72.498558,66.69,10010,6.5,58.0,1.0,-1.25,58.0,1.0,-1.25,0.25,1.12,-5.0,36.0,-34.0,3.0,-22.69,0.37,0.75,-0.02,0.17,0.21,9.8,35.09,38.76,1000.64
38010,2933,70.42,26,1,0,1252700,0.35,23.1142864,72.498558,66.69,10010,6.52,57.88,1.0,-1.25,57.88,1.0,-1.25,-0.56,-0.38,7.81,36.0,-35.06,3.38,-23.06,-0.47,-1.12,-1.28,0.17,0.21,9.8,35.16,38.76,1000.63
38011,2933,70.42,26,1,0,1252700,0.35,23.1142864,72.498558,66.69,10010,6.52,57.81,1.0,-1.25,57.81,1.0,-1.25,-1.38,0.56,1.69,36.0,-34.0,3.69,-21.5,-0.96,0.73,1.15,0.17,0.21,9.8,35.18,38.77,1000.63
38012,2933,70.42,26,1,0,1252700,0.35,23.1142864,72.498558,66.69,10010,6.53,57.81,0.94,-1.25,57.81,0.94,-1.25,-1.19,0.56,-0.56,36.0,-34.69,3.38,-22.25,-0.7,-1.68,-0.29,0.16,0.21,9.8,35.35,38.77,1000.61
38013,2933,70.42,26,1,0,1252700,0.35,23.1142864,72.498558,66.69,10010,6.55,57.81,0.94,-1.25,57.81,0.94,-1.25,0.75,1.38,-5.94,36.0,-34.69,3.38,-22.25,0.31,-0.57,-2.04,0.16,0.22,9.8,35.5,38.78,1000.59
38014,2933,70.42,26,1,0,1252700,0.35,23.1142864,72.498558,66.69,10010,6.55,57.81,0.94,-1.25,57.81,0.94,-1.25,-2.25,-1.06,2.94,36.0,-35.06,4.38,-23.5,-0.6,-0.7,0.96,0.16,0.21,9.8,35.56,38.78,1000.59
38015,2933,70.42,26,1,0,1252700,0.35,23.1142864,72.498558,66.69,10010,6.55,58.0,0.88,-1.25,58.0,0.88,-1.25,2.25,-0.38,3.44,36.0,-34.0,3.56,-22.25,-0.27,0.46,0.52,0.16,0.21,9.8,35.69,38.78,1000.57
38016,2933,70.42,26,1,0,1252700,0.35,23.1142864,72.498558,66.69,10010,6.55,58.0,0.94,-1.19,58.0,0.94,-1.19,-1.5,0.94,-5.69,36.0,-34.69,2.5,-22.69,0.33,-1.96,-1.97,0.16,0.21,9.8,35.73,38.79,1000.56
38017,2933,70.42,26,1,0,1252700,0.35,23.1142864,72.498558,66.69,10010,6.55,57.94,0.94,-1.19,57.94,0.94,-1.19,0.12,-2.25,6.19,36.0,-33.69,3.56,-22.25,-0.58,1.33,1.0,0.16,0.21,9.8,35.9,38.79,1000.54
38018,2934,70.42,26,1,0,1252800,0.33,23.1142902,72.498558,67.38,10010,6.47,57.88,1.0,-1.12,57.88,1.0,-1.12,-0.12,0.25,-2.0,36.0,-34.75,3.56,-23.06,0.28,-0.74,-1.1,0.17,0.19,9.8,36.37,38.77,1000.49
38019,2934,70.42,26,1,0,1252800,0.33,23.1142902,72.498558,67.38,10010,6.52,57.88,1.0,-1.12,57.88,1.0,-1.12,-1.19,0.25,0.12,36.0,-34.75,3.56,-23.06,-1.23,0.74,0.35,0.17,0.19,9.8,36.77,38.76,1000.44
38020,2934,70.42,26,1,0,1252800,0.33,23.1142902,72.498558,67.38,10010,6.55,57.88,1.0,-1.06,57.88,1.0,-1.06,0.12,0.25,1.81,36.0,-34.06,4.0,-22.25,0.16,-0.16,-1.07,0.17,0.19,9.8,37.03,38.76,1000.41
38021,2934,70.42,26,1,0,1252800,0.33,23.1142902,72.498558,67.38,10010,6.52,57.88,1.0,-1.06,57.88,1.0,-1.06,-1.06,0.81,-2.44,36.0,-34.06,3.25,-23.5,0.12,-0.88,0.37,0.17,0.18,9.8,37.13,38.76,1000.4
38022,2934,70.42,26,1,0,1252800,0.33,23.1142902,72.498558,67.38,10010,6.57,57.88,1.0,-1.0,57.88,1.0,-1.0,-0.94,0.06,0.94,36.0,-33.0,4.69,-23.5,-1.06,0.73,0.31,0.17,0.17,9.8,37.28,38.77,1000.38
38023,2934,70.42,26,1,0,1252800,0.33,23.1142902,72.498558,67.38,10010,6.55,57.88,0.94,-1.0,57.88,0.94,-1.0,-1.19,0.38,-1.62,36.0,-33.0,4.69,-23.5,0.15,-0.31,-1.76,0.16,0.17,9.8,37.43,38.77,1000.36
38024,2934,70.42,26,1,0,1252800,0.33,23.1142902,72.498558,67.38,10010,6.5,57.88,0.94,-1.0,57.88,0.94,-1.0,1.38,-1.06,1.81,36.0,-34.38,4.0,-22.69,0.45,-0.37,1.27,0.16,0.17,9.8,37.57,38.78,1000.35
38025,2934,70.42,26,1,0,1252800,0.33,23.1142902,72.498558,67.38,10010,6.57,57.88,0.94,-0.94,57.88,0.94,-0.94,1.06,-1.25,1.75,36.0,-34.06,4.69,-23.06,-1.28,0.12,-1.22,0.17,0.17,9.8,37.71,38.78,1000.33
38026,2934,70.42,26,1,0,1252800,0.33,23.1142902,72.498558,67.38,10010,6.55,57.88,1.0,-1.0,57.88,1.0,-1.0,-0.12,0.62,-2.06,36.0,-34.38,3.56,-21.5,-0.16,-0.86,-0.08,0.17,0.17,9.8,37.76,38.79,1000.32
38027,2934,70.42,26,1,0,1252800,0.33,23.1142902,72.498558,67.38,10010,6.55,57.88,1.0,-1.0,57.88,1.0,-1.0,-1.56,-0.62,1.06,36.0,-33.75,2.88,-23.06,0.31,-0.64,-0.33,0.17,0.16,9.8,37.93,38.79,1000.3
38028,2934,70.42,26,1,0,1252800,0.33,23.1142902,72.498558,67.38,10010,6.52,57.88,1.0,-0.94,57.88,1.0,-0.94,-1.19,1.06,-0.56,36.0,-33.75,2.88,-23.06,-1.17,0.69,-0.85,0.17,0.16,9.8,38.1,38.79,1000.28
38029,2934,70.42,26,1,0,1252800,0.33,23.1142902,72.498558,67.38,10010,6.53,57.88,1.0,-0.94,57.88,1.0,-0.94,-1.12,1.12,0.5,36.0,-34.06,4.25,-23.06,0.37,0.78,0.93,0.17,0.16,9.8,38.22,38.8,1000.27
38030,2934,70.42,26,1,0,1252800,0.33,23.1142902,72.498558,67.38,10010,6.55,57.88,1.0,-0.94,57.88,1.0,-0.94,1.38,0.31,0.0,36.0,-34.75,2.5,-23.5,0.25,0.72,0.04,0.17,0.16,9.8,38.25,38.8,1000.26
38031,2935,70.42,26,1,0,1252800,0.33,23.1142902,72.498558,67.38,10010,6.52,57.75,0.94,-1.12,57.75,0.94,-1.12,-1.38,0.75,-8.0,36.0,-33.75,3.25,-24.75,-0.84,-1.98,-0.15,0.16,0.2,9.8,38.72,38.78,1000.21
38032,2935,70.42,26,1,0,1252800,0.33,23.1142902,72.498558,67.38,10010,6.52,57.62,0.88,-1.12,57.62,0.88,-1.12,-1.88,-2.06,5.44,36.0,-33.0,4.38,-21.75,-0.09,0.89,0.21,0.15,0.2,9.8,38.95,38.77,1000.18
38033,2935,70.42,26,1,0,1252900,0.35,23.1142941,72.498558,68.1,10010,6.48,57.69,0.81,-1.12,57.69,0.81,-1.12,2.31,1.56,1.0,36.0,-34.06,4.38,-21.88,0.12,-1.34,-1.87,0.14,0.2,9.8,39.1,38.76,1000.16
38034,2935,70.42,26,1,0,1252900,0.35,23.1142941,72.498558,68.1,10010,6.47,57.62,0.81,-1.12,57.62,0.81,-1.12,-2.31,2.25,-5.19,36.0,-34.06,4.38,-21.88,-0.28,0.86,1.17,0.14,0.19,9.8,39.22,38.77,1000.15
38035,2935,70.42,26,1,0,1252900,0.35,23.1142941,72.498558,68.1,10010,6.5,57.69,0.81,-1.12,57.69,0.81,-1.12,0.62,-2.19,6.81,36.0,-33.38,3.69,-21.0,-0.29,1.96,1.08,0.14,0.19,9.8,39.39,38.77,1000.13
38036,2935,70.42,26,1,0,1252900,0.35,23.1142941,72.498558,68.1,10010,6.55,57.62,0.81,-1.12,57.62,0.81,-1.12,1.56,0.88,-3.31,36.0,-34.25,3.69,-22.69,-0.62,0.42,-0.73,0.14,0.19,9.8,39.5,38.78,1000.12
38037,2935,70.42,26,1,0,1252900,0.35,23.1142941,72.498558,68.1,10010,6.53,57.62,0.88,-1.19,57.62,0.88,-1.19,-0.81,-0.56,-1.19,36.0,-33.69,4.06,-20.56,0.14,-2.73,-0.63,0.15,0.2,9.8,39.63,38.78,1000.1
38038,2935,70.42,26,1,0,1252900,0.35,23.1142941,72.498558,68.1,10010,6.55,57.69,0.88,-1.19,57.69,0.88,-1.19,0.25,1.69,-5.0,36.0,-33.69,4.06,-20.56,0.15,-2.2,-0.62,0.15,0.2,9.8,39.78,38.79,1000.08
38039,2935,70.42,26,1,0,1252900,0.35,23.1142941,72.498558,68.1,10010,6.55,57.62,0.88,-1.19,57.62,0.88,-1.19,-1.25,-0.75,0.25,36.0,-34.69,3.69,-21.75,-0.35,0.28,1.5,0.15,0.2,9.8,39.86,38.79,1000.07
38040,2935,70.42,26,1,0,1252900,0.35,23.1142941,72.498558,68.1,10010,6.57,57.62,0.88,-1.19,57.62,0.88,-1.19,2.5,-1.5,3.69,36.0,-33.25,4.06,-22.25,-0.35,0.42,1.14,0.15,0.21,9.8,40.12,38.8,1000.04
38041,2935,70.42,26,1,0,1252900,0.35,23.1142941,72.498558,68.1,10010,6.55,57.62,0.88,-1.19,57.62,0.88,-1.19,-0.81,-0.12,-3.44,36.0,-34.25,4.06,-23.06,-0.77,-1.27,-1.27,0.15,0.2,9.8,40.26,38.8,1000.03
38042,2935,70.42,26,1,0,1252900,0.35,23.1142941,72.498558,68.1,10010,6.57,57.62,0.88,-1.19,57.62,0.88,-1.19,-2.0,0.06,0.38,36.0,-34.25,4.38,-22.69,0.14,-1.32,0.26,0.15,0.2,9.8,40.41,38.8,1000.01
38043,2935,70.42,26,1,0,1252900,0.35,23.1142941,72.498558,68.1,10010,6.57,57.62,0.88,-1.12,57.62,0.88,-1.12,1.0,-1.25,2.25,36.0,-34.25,4.38,-22.69,-0.38,0.4,-0.65,0.16,0.2,9.8,40.48,38.81,1000.0
38044,2936,70.42,26,1,0,1252900,0.35,23.1142941,72.498558,68.1,10010,6.59,57.62,1.0,-1.12,57.62,1.0,-1.12,1.44,-1.31,-4.06,36.0,-34.69,3.38,-22.69,-0.04,-2.41,-1.42,0.17,0.2,9.8,40.77,38.79,999.97
38045,2936,70.42,26,1,0,1252900,0.35,23.1142941,72.498558,68.1,10010,6.53,57.62,0.94,-1.19,57.62,0.94,-1.19,-2.56,-1.88,-1.62,36.0,-34.25,4.38,-23.06,-1.26,-0.13,-0.05,0.17,0.2,9.8,40.95,38.78,999.94
38046,2936,70.42,26,1,0,1252900,0.35,23.1142941,72.498558,68.1,10010,6.55,57.69,0.94,-1.19,57.69,0.94,-1.19,1.88,-1.5,5.12,36.0,-34.25,3.0,-22.25,0.08,0.51,-1.27,0.17,0.2,9.8,41.1,38.77,999.93
38047,2936,70.42,26,1,0,1252900,0.35,23.1142941,72.498558,68.1,10010,6.57,57.62,1.0,-1.12,57.62,1.0,-1.12,-1.25,-0.44,4.75,36.0,-34.38,5.19,-21.0,-0.71,0.78,1.87,0.17,0.2,9.8,41.38,38.77,999.89
38048,2936,70.42,26,1,0,1253000,0.38,23.114296,72.4985504,68.87,10010,6.53,57.69,0.94,-1.19,57.69,0.94,-1.19,2.0,0.38,-1.38,36.0,-34.38,5.19,-21.0,-0.19,-0.35,-2.12,0.17,0.2,9.8,41.65,38.77,999.86
38049,2936,70.42,26,1,0,1253000,0.38,23.114296,72.4985504,68.87,10010,6.52,57.62,0.94,-1.19,57.62,0.94,-1.19,-1.69,-0.19,-2.25,36.0,-34.69,4.38,-21.5,-0.3,-1.18,-0.35,0.16,0.2,9.8,41.93,38.78,999.83
38050,2936,70.42,26,1,0,1253000,0.38,23.114296,72.4985504,68.87,10010,6.52,57.69,0.94,-1.19,57.69,0.94,-1.19,0.62,-1.5,4.69,36.0,-33.25,3.69,-21.88,-0.53,0.76,0.54,0.17,0.21,9.8,42.08,38.78,999.81
38051,2936,70.42,26,1,0,1253000,0.38,23.114296,72.4985504,68.87,10010,6.5,57.62,0.94,-1.19,57.62,0.94,-1.19,-1.06,0.06,2.38,36.0,-34.25,3.38,-19.75,-0.5,-1.44,-1.04,0.16,0.21,9.8,42.37,38.78,999.78
38052,2936,70.42,26,1,0,1253000,0.38,23.114296,72.4985504,68.87,10010,6.57,57.69,0.94,-1.25,57.69,0.94,-1.25,2.94,-0.81,-0.25,36.0,-34.25,3.38,-19.75,-1.01,0.63,-0.92,0.16,0.21,9.8,42.43,38.79,999.77
38053,2936,70.42,26,1,0,1253000,0.38,23.114296,72.4985504,68.87,10010,6.55,57.75,0.94,-1.25,57.75,0.94,-1.25,-1.75,-0.56,-4.69,36.0,-34.0,4.06,-21.5,-0.92,0.08,-1.5,0.17,0.21,9.8,42.49,38.79,999.76
38054,2936,70.42,26,1,0,1253000,0.38,23.114296,72.4985504,68.87,10010,6.57,57.69,0.94,-1.25,57.69,0.94,-1.25,0.25,-1.12,3.62,36.0,-34.25,4.06,-23.06,-0.38,-0.18,0.23,0.16,0.21,9.8,42.57,38.79,999.75
38055,2936,70.42,26,1,0,1253000,0.38,23.114296,72.4985504,68.87,10010,6.55,57.75,0.94,-1.25,57.75,0.94,-1.25,0.69,-0.69,3.81,36.0,-34.25,3.69,-22.69,0.16,-0.29,-0.97,0.16,0.22,9.8,42.75,38.8,999.73
38056,2936,70.42,26,1,0,1253000,0.38,23.114296,72.4985504,68.87,10010,6.55,57.69,0.94,-1.25,57.69,0.94,-1.25,-1.5,0.62,-0.31,36.0,-34.69,3.69,-22.69,0.31,0.35,0.26,0.16,0.22,9.8,42.91,38.8,999.71
38057,2937,70.42,26,1,0,1253000,0.38,23.114296,72.4985504,68.87,10010,6.52,57.75,1.06,-1.19,57.75,1.06,-1.19,1.25,0.81,-0.12,36.0,-34.0,3.38,-22.25,-0.23,-1.84,-1.88,0.18,0.21,9.8,43.29,38.78,999.67
38058,2937,70.42,26,1,0,1253000,0.38,23.114296,72.4985504,68.87,10010,6.5,57.75,1.12,-1.19,57.75,1.12,-1.19,-2.69,0.5,-3.31,36.0,-34.0,3.38,-22.25,-0.29,0.39,-0.33,0.19,0.2,9.8,43.4,38.77,999.65
38059,2937,70.42,26,1,0,1253000,0.38,23.114296,72.4985504,68.87,10010,6.5,57.81,1.12,-1.19,57.81,1.12,-1.19,2.5,-1.31,4.62,36.0,-34.25,4.38,-22.25,-0.82,-0.05,-2.51,0.19,0.2,9.8,43.46,38.77,999.65
38060,2937,70.42,26,1,0,1253000,0.38,23.114296,72.4985504,68.87,10010,6.5,57.75,1.12,-1.19,57.75,1.12,-1.19,-1.19,0.75,-6.69,36.0,-34.0,3.0,-22.25,0.25,-1.18,-1.16,0.19,0.2,9.8,43.5,38.78,999.64
38061,2937,70.42,26,1,0,1253000,0.38,23.114296,72.4985504,68.87,10010,6.5,57.81,1.12,-1.25,57.81,1.12,-1.25,2.44,2.5,-3.19,36.0,-32.88,4.38,-21.75,0.29,-1.57,-1.91,0.19,0.21,9.8,43.69,38.78,999.62
38062,2937,70.42,26,1,0,1253000,0.38,23.114296,72.4985504,68.87,10010,6.5,57.81,1.12,-1.25,57.81,1.12,-1.25,-1.75,-1.5,0.88,36.0,-32.88,4.38,-21.75,-0.14,1.47,0.89,0.2,0.21,9.8,43.86,38.79,999.6
38063,2937,70.42,26,1,0,1253100,0.23,23.1142998,72.4985504,69.64,10010,6.57,57.81,1.19,-1.25,57.81,1.19,-1.25,2.94,-1.12,0.56,36.0,-33.69,4.38,-22.69,-0.58,-0.63,-2.27,0.2,0.22,9.8,43.92,38.79,999.59
38064,2937,70.42,26,1,0,1253100,0.23,23.1142998,72.4985504,69.64,10010,6.55,57.81,1.25,-1.31,57.81,1.25,-1.31,-0.25,0.0,-1.94,36.0,-34.25,4.06,-22.25,0.53,0.26,0.89,0.21,0.22,9.8,44.08,38.8,999.57
38065,2937,70.42,26,1,0,1253100,0.23,23.1142998,72.4985504,69.64,10010,6.57,57.81,1.25,-1.31,57.81,1.25,-1.31,2.69,-3.69,3.38,36.0,-33.69,3.69,-21.88,-1.03,-0.77,-2.77,0.22,0.23,9.8,44.18,38.8,999.56
38066,2937,70.42,26,1,0,1253100,0.23,23.1142998,72.4985504,69.64,10010,6.57,57.75,1.31,-1.38,57.75,1.31,-1.38,1.25,-2.56,4.88,36.0,-33.69,3.69,-21.88,-0.35,0.57,-1.43,0.23,0.23,9.8,44.36,38.81,999.54
38067,2937,70.42,26,1,0,1253100,0.23,23.1142998,72.4985504,69.64,10010,6.55,57.81,1.38,-1.31,57.81,1.38,-1.31,0.88,-1.56,5.31,36.0,-34.0,4.38,-24.0,-0.82,-0.2,-2.68,0.23,0.23,9.8,44.48,38.81,999.53
38068,2937,70.42,26,1,0,1253100,0.23,23.1142998,72.4985504,69.64,10010,6.55,57.75,1.38,-1.31,57.75,1.38,-1.31,-1.25,0.31,-3.12,36.0,-34.25,3.69,-22.69,0.21,-0.23,1.21,0.24,0.22,9.8,44.5,38.82,999.52
38069,2937,70.42,26,1,0,1253100,0.23,23.1142998,72.4985504,69.64,10010,6.55,57.75,1.38,-1.31,57.75,1.38,-1.31,-0.25,-1.62,4.94,36.0,-34.0,4.06,-23.5,-0.57,-0.58,-2.96,0.24,0.23,9.8,44.55,38.82,999.52
38070,2938,70.42,26,1,0,1253100,0.23,23.1142998,72.4985504,69.64,10010,6.53,57.62,1.56,-1.31,57.62,1.56,-1.31,2.56,0.25,0.62,36.0,-34.69,3.69,-22.56,-1.08,-0.79,-1.68,0.27,0.23,9.8,44.86,38.8,999.48
38071,2938,70.42,26,1,0,1253100,0.23,23.1142998,72.4985504,69.64,10010,6.53,57.56,1.56,-1.38,57.56,1.56,-1.38,-1.88,0.5,0.25,36.0,-33.69,4.38,-21.75,0.26,0.08,-1.37,0.27,0.23,9.8,44.96,38.79,999.47
38072,2938,70.42,26,1,0,1253100,0.23,23.1142998,72.4985504,69.64,10010,6.5,57.56,1.56,-1.38,57.56,1.56,-1.38,-2.38,0.5,-4.25,36.0,-33.69,4.38,-21.75,-0.05,0.88,0.1,0.27,0.24,9.79,45.05,38.79,999.46
38073,2938,70.42,26,1,0,1253100,0.23,23.1142998,72.4985504,69.64,10010,6.5,57.56,1.62,-1.38,57.56,1.62,-1.38,2.19,-1.69,4.12,36.0,-34.25,5.19,-21.69,-0.27,1.14,0.23,0.28,0.23,9.79,45.16,38.79,999.44
38074,2938,70.42,26,1,0,1253100,0.23,23.1142998,72.4985504,69.64,10010,6.53,57.56,1.69,-1.31,57.56,1.69,-1.31,1.81,0.12,0.12,36.0,-34.0,3.38,-20.88,-0.67,-0.85,-2.98,0.28,0.23,9.79,45.29,38.79,999.43
38075,2938,70.42,26,1,0,1253100,0.23,23.1142998,72.4985504,69.64,10010,6.52,57.56,1.69,-1.38,57.56,1.69,-1.38,-2.69,-0.44,1.0,36.0,-33.69,4.38,-20.88,-0.14,0.67,-0.22,0.28,0.23,9.79,45.46,38.8,999.41
38076,2938,70.42,26,1,0,1253100,0.23,23.1142998,72.4985504,69.64,10010,6.52,57.56,1.62,-1.31,57.56,1.62,-1.31,-2.94,2.06,-1.5,36.0,-33.69,4.75,-22.19,0.63,-0.16,0.13,0.28,0.22,9.79,45.52,38.8,999.4
38077,2938,70.42,26,1,0,1253100,0.23,23.1142998,72.4985504,69.64,10010,6.52,57.56,1.62,-1.31,57.56,1.62,-1.31,1.31,-0.56,0.62,36.0,-33.69,4.75,-22.19,-1.26,0.53,-1.84,0.27,0.22,9.8,45.65,38.81,999.39
38078,2938,70.42,26,1,0,1253200,0.57,23.1143017,72.4985504,69.91,10010,6.55,57.5,1.56,-1.25,57.5,1.56,-1.25,-2.44,2.56,-1.12,36.0,-34.0,5.19,-21.75,0.74,0.27,-0.3,0.27,0.21,9.8,45.63,38.81,999.39
38079,2938,70.42,26,1,0,1253200,0.57,23.1143017,72.4985504,69.91,10010,6.55,57.56,1.5,-1.25,57.56,1.5,-1.25,2.0,-0.38,1.94,36.0,-33.69,4.38,-20.88,-1.07,0.1,-2.34,0.26,0.21,9.8,45.73,38.82,999.38
38080,2938,70.42,26,1,0,1253200,0.57,23.1143017,72.4985504,69.91,10010,6.55,57.5,1.5,-1.25,57.5,1.5,-1.25,0.56,-2.25,5.31,36.0,-33.25,4.75,-22.56,0.35,0.31,-0.93,0.26,0.2,9.8,45.83,38.82,999.36
38081,2938,70.42,26,1,0,1253200,0.57,23.1143017,72.4985504,69.91,10010,6.55,57.5,1.5,-1.19,57.5,1.5,-1.19,-2.38,2.69,-4.62,36.0,-33.25,4.75,-22.56,-0.37,-0.96,-0.21,0.25,0.2,9.8,45.81,38.82,999.37
38082,2938,70.42,26,1,0,1253200,0.57,23.1143017,72.4985504,69.91,10010,6.55,57.44,1.5,-1.12,57.44,1.5,-1.12,-0.44,-1.44,4.69,36.0,-34.0,3.69,-23.0,-0.33,-0.24,-1.14,0.26,0.19,9.8,45.84,38.83,999.36
38083,2939,70.42,26,1,0,1253200,0.57,23.1143017,72.4985504,69.91,10010,6.52,57.38,1.44,-1.19,57.38,1.44,-1.19,-0.06,0.81,-0.88,36.0,-33.69,4.25,-23.0,0.84,-0.63,1.03,0.25,0.2,9.8,45.9,38.81,999.36
38084,2939,70.42,26,1,0,1253200,0.57,23.1143017,72.4985504,69.91,10010,6.52,57.44,1.44,-1.19,57.44,1.44,-1.19,0.81,-1.25,1.56,36.0,-33.25,4.0,-23.38,-1.44,0.41,-2.02,0.25,0.2,9.8,45.95,38.8,999.35
38085,2939,70.42,26,1,0,1253200,0.57,23.1143017,72.4985504,69.91,10010,6.55,57.38,1.44,-1.25,57.38,1.44,-1.25,0.75,1.69,-1.56,36.0,-34.25,4.0,-22.56,0.63,-0.99,-0.48,0.24,0.21,9.8,46.05,38.79,999.34
38086,2939,70.42,26,1,0,1253200,0.57,23.1143017,72.4985504,69.91,10010,6.45,57.44,1.44,-1.25,57.44,1.44,-1.25,1.06,0.81,-1.62,36.0,-33.25,4.0,-21.38,0.46,-0.59,0.45,0.25,0.22,9.8,46.1,38.8,999.33
38087,2939,70.42,26,1,0,1253200,0.57,23.1143017,72.4985504,69.91,10010,6.52,57.44,1.44,-1.31,57.44,1.44,-1.31,1.75,0.5,-0.06,36.0,-33.25,4.0,-21.38,-0.9,-0.57,-2.13,0.24,0.23,9.8,46.25,38.8,999.31
38088,2939,70.42,26,1,0,1253200,0.57,23.1143017,72.4985504,69.91,10010,6.5,57.44,1.38,-1.31,57.44,1.38,-1.31,0.56,-0.88,0.62,36.0,-33.69,3.56,-21.69,-0.08,-1.12,-0.08,0.24,0.23,9.8,46.23,38.8,999.32
38089,2939,70.42,26,1,0,1253200,0.57,23.1143017,72.4985504,69.91,10010,6.43,57.38,1.44,-1.31,57.38,1.44,-1.31,-0.06,0.25,-2.5,36.0,-33.25,4.69,-22.56,-0.28,-0.83,-0.75,0.24,0.23,9.8,46.27,38.81,999.31
38090,2939,70.42,26,1,0,1253200,0.57,23.1143017,72.4985504,69.91,10010,6.52,57.44,1.44,-1.38,57.44,1.44,-1.38,2.06,-2.38,4.25,36.0,-34.25,4.0,-21.38,-0.87,-1.69,-1.48,0.25,0.23,9.8,46.31,38.82,999.31
38091,2939,70.42,26,1,0,1253200,0.57,23.1143017,72.4985504,69.91,10010,6.53,57.38,1.5,-1.38,57.38,1.5,-1.38,1.06,-0.5,5.69,36.0,-34.25,4.0,-21.38,-0.1,-0.38,0.67,0.25,0.23,9.8,46.41,38.82,999.3
38092,2939,70.42,26,1,0,1253200,0.57,23.1143017,72.4985504,69.91,10010,6.53,57.44,1.44,-1.38,57.44,1.44,-1.38,0.38,0.38,-5.75,36.0,-34.25,4.69,-21.38,-1.28,-2.11,-1.68,0.25,0.24,9.8,46.37,38.83,999.3
38093,2939,70.42,26,1,0,1253300,0.75,23.1143036,72.4985428,69.91,10010,6.55,57.31,1.5,-1.44,57.31,1.5,-1.44,0.38,-0.06,6.38,36.0,-34.0,4.0,-21.69,0.05,0.2,0.96,0.25,0.24,9.8,46.4,38.83,999.3
38094,2939,70.42,26,1,0,1253300,0.75,23.1143036,72.4985428,70.53,10010,6.53,57.38,1.44,-1.38,57.38,1.44,-1.38,3.12,-0.94,7.88,36.0,-33.25,4.0,-21.38,-1.07,-1.19,-2.09,0.25,0.24,9.8,46.53,38.83,999.28
38095,2939,70.42,26,1,0,1253300,0.75,23.1143036,72.4985428,70.53,10010,6.53,57.25,1.44,-1.44,57.25,1.44,-1.44,0.5,-0.19,5.56,36.0,-33.69,5.06,-21.69,0.75,-0.17,-1.45,0.25,0.24,9.8,46.58,38.84,999.28
38096,2940,70.42,26,1,0,1253300,0.75,23.1143036,72.4985428,70.53,10010,6.5,57.06,1.38,-1.56,57.06,1.38,-1.56,-0.25,-0.19,-0.94,36.0,-33.69,3.56,-23.0,-0.75,-0.14,0.43,0.24,0.27,9.79,46.44,38.82,999.29
